trials.thisTrialN,trials.thisN,trials.thisIndex,text_4.started,image.started,mouse.started,Valence.started,Valence_rating.response,Valence_rating.rt,Valence_rating.started,Arousal.started,Arousal_rating.response,Arousal_rating.rt,Arousal_rating.started
0.0,0.0,173.0,87.7678780999995,87.7678780999995,0.0017030999988492,90.19061839999996,3.0,14.737,0.0057823000024654,90.19061839999996,6.0,10.296,0.0057823000024654
1.0,1.0,149.0,104.94397299999764,104.94397299999764,0.0034521999987191,107.04609499999788,7.0,27.327,0.0130467999952088,107.04609499999788,3.0,30.303,0.0130467999952088
2.0,2.0,5.0,137.397414199997,137.397414199997,0.0075792999996338,140.316976099999,3.0,9.902,0.0122213000031479,140.316976099999,5.0,5.624,0.0122213000031479
3.0,3.0,212.0,150.27451689999725,150.27451689999725,0.0013523999987228,151.59820259999833,7.0,12.557,0.0142207999997481,151.59820259999833,3.0,5.729,0.0142207999997481
4.0,4.0,9.0,164.20349489999717,164.20349489999717,0.0106999999989056,166.33341959999962,5.0,9.221,0.0133138999990478,166.33341959999962,4.0,2.346,0.0133138999990478
5.0,5.0,70.0,175.60042829999657,175.60042829999657,0.0022113000013632,176.9212658999968,8.0,7.708,0.0148583999980473,176.9212658999968,4.0,4.361,0.0148583999980473
6.0,6.0,98.0,184.68081549999988,184.68081549999988,0.0081699000002117,188.34818749999977,3.0,2.667,0.0125241000023379,188.34818749999977,5.0,7.811,0.0125241000023379
7.0,7.0,159.0,196.21964129999836,196.21964129999836,0.0070203999966906,197.65867719999733,4.0,7.57,0.0132693999985349,197.65867719999733,6.0,4.283,0.0132693999985349
8.0,8.0,195.0,205.2675098999971,205.2675098999971,0.0138879999976779,207.005356499998,3.0,6.354,0.0148037999970256,207.005356499998,7.0,3.612,0.0148037999970256
9.0,9.0,155.0,213.3983659999976,213.3983659999976,0.0017624000029172,215.35128709999844,4.0,5.934,0.0152648999974189,215.35128709999844,6.0,3.04,0.0152648999974189
10.0,10.0,32.0,221.33683659999951,221.33683659999951,0.0126214999945659,224.73954629999932,5.0,7.421,0.0150907999995979,224.73954629999932,4.0,4.145,0.0150907999995979
11.0,11.0,158.0,232.20692489999783,232.20692489999783,0.0001563999940117,236.14437159999943,5.0,6.723,0.0144234999970649,236.14437159999943,4.0,3.08,0.0144234999970649
12.0,12.0,20.0,242.90817529999916,242.90817529999916,0.0029253999928187,244.32192049999867,3.0,2.535,0.0132358999981079,244.32192049999867,7.0,6.648,0.0132358999981079
13.0,13.0,61.0,251.01623990000007,251.01623990000007,0.0157354999937524,252.4327772999968,4.0,3.46,0.0134946999969542,252.4327772999968,6.0,1.577,0.0134946999969542
14.0,14.0,174.0,255.94243259999712,255.94243259999712,0.0155139000016788,258.3779680999978,5.0,10.224,0.0163849999989906,258.3779680999978,5.0,3.335,0.0163849999989906
15.0,15.0,222.0,268.6507778999985,268.6507778999985,0.0040312999990419,270.34298659999695,4.0,2.983,0.0126813999995647,270.34298659999695,3.0,6.78,0.0126813999995647
16.0,16.0,107.0,277.17462669999804,277.17462669999804,0.0002138999952876,279.28872799999954,5.0,3.652,0.0131819999987783,279.28872799999954,2.0,5.118,0.0131819999987783
17.0,17.0,59.0,284.4641217999997,284.4641217999997,0.0133436999967671,287.5848796999999,6.0,12.543,0.0138879999976779,287.5848796999999,5.0,2.586,0.0138879999976779
18.0,18.0,176.0,300.16984349999984,300.16984349999984,0.0166592999994463,301.8176464999997,4.0,16.17,0.0095900999949662,301.8176464999997,3.0,9.548,0.0095900999949662
19.0,19.0,128.0,318.037209099999,318.037209099999,0.0051747000034083,319.93370049999794,3.0,6.7,0.0143602999996801,319.93370049999794,6.0,5.811,0.0143602999996801
20.0,20.0,188.0,326.6985749999985,326.6985749999985,0.0069345999982033,328.8440367999974,6.0,10.738,0.0138745999975071,328.8440367999974,3.0,13.418,0.0138745999975071
21.0,21.0,211.0,342.3251515999982,342.3251515999982,0.0078591999990749,345.1260233999965,5.0,9.587,0.0124028999998699,345.1260233999965,2.0,5.655,0.0124028999998699
22.0,22.0,103.0,354.7710640999976,354.7710640999976,0.0153679999966698,358.62799769999765,3.0,3.869,0.0138774000006378,358.62799769999765,7.0,7.411,0.0138774000006378
23.0,23.0,223.0,366.0989039999986,366.0989039999986,0.0112229000005754,368.31686969999646,7.0,9.019,0.012687200000073,368.31686969999646,7.0,2.358,0.012687200000073
24.0,24.0,138.0,377.3843683999985,377.3843683999985,0.0134866000007605,378.85822109999935,3.0,2.004,0.013919299995905,378.85822109999935,7.0,6.503,0.013919299995905
25.0,25.0,146.0,385.42270729999655,385.42270729999655,0.0102920999961497,387.0071773999989,4.0,5.15,0.0135412000017822,387.0071773999989,5.0,2.073,0.0135412000017822
26.0,26.0,29.0,392.2019010999975,392.2019010999975,0.0127762999945844,394.0669096999991,3.0,9.036,0.0125121999990369,394.0669096999991,6.0,3.266,0.0125121999990369
27.0,27.0,209.0,403.1568731999978,403.1568731999978,0.0157599999984086,404.9235731999979,7.0,6.269,0.0132922999982838,404.9235731999979,2.0,5.101,0.0132922999982838
28.0,28.0,121.0,411.2610836999993,411.2610836999993,0.0145259000018995,413.9575700999994,6.0,6.603,0.0131364000008034,413.9575700999994,4.0,3.349,0.0131364000008034
29.0,29.0,77.0,420.6007569999965,420.6007569999965,0.0125864999972691,422.7154332999999,6.0,10.002,0.0113548000008449,422.7154332999999,4.0,3.145,0.0113548000008449
30.0,30.0,123.0,432.7730920999966,432.7730920999966,0.0113161000008403,434.1095014999992,7.0,10.385,0.0100499000000127,434.1095014999992,1.0,5.941,0.0100499000000127
31.0,31.0,73.0,444.51891749999777,444.51891749999777,0.0026896999952441,445.7243639999979,6.0,8.0,0.0117490000011457,445.7243639999979,3.0,4.426,0.0117490000011457
32.0,32.0,110.0,453.7636262999986,453.7636262999986,0.0101056999956199,454.8754592999976,7.0,6.034,0.0106406000013521,454.8754592999976,2.0,3.146,0.0106406000013521
33.0,33.0,180.0,460.9603191999995,460.9603191999995,0.0013563000029535,462.5510422999978,2.0,6.436,0.0125594999990426,462.5510422999978,6.0,5.011,0.0125594999990426
34.0,34.0,99.0,469.04053999999815,469.04053999999815,0.0079365000019606,470.2256017,3.0,4.117,0.0114016000006813,470.2256017,7.0,1.808,0.0114016000006813
35.0,35.0,177.0,474.3897221999978,474.3897221999978,0.010785800001031,476.2253451999968,2.0,2.117,0.012580099999468,476.2253451999968,7.0,5.758,0.012580099999468
36.0,36.0,157.0,482.0407078999997,482.0407078999997,0.0124552999986917,483.8550927999968,5.0,5.883,0.0111818000004859,483.8550927999968,3.0,3.614,0.0111818000004859
37.0,37.0,93.0,489.79197589999967,489.79197589999967,0.0145750000010593,491.4644802999974,5.0,1.52,0.0143809000001056,491.4644802999974,3.0,4.411,0.0143809000001056
38.0,38.0,237.0,495.9121914999996,495.9121914999996,0.0126105999988794,502.9299165999983,3.0,5.419,0.0141663999966112,502.9299165999983,8.0,3.145,0.0141663999966112
39.0,39.0,24.0,508.4035771999989,508.4035771999989,0.0100852999967173,510.069474699998,5.0,4.597,0.0125210000005608,510.069474699998,3.0,8.507,0.0125210000005608
40.0,40.0,114.0,518.6286754999965,518.6286754999965,0.0159666999970795,520.2342799999969,5.0,6.598,0.0059447999992698,520.2342799999969,2.0,3.929,0.0059447999992698
41.0,41.0,23.0,526.887022699997,526.887022699997,0.0163703999969584,529.4551799000001,5.0,8.168,0.0117314000017358,529.4551799000001,4.0,2.239,0.0117314000017358
42.0,42.0,208.0,537.6675131999982,537.6675131999982,0.0063448000000789,539.8617471999969,4.0,2.575,0.0128093999992415,539.8617471999969,4.0,5.932,0.0128093999992415
43.0,43.0,166.0,545.8458599999976,545.8458599999976,0.0159860999992815,547.6642506999997,6.0,7.167,0.0095555999978387,547.6642506999997,4.0,4.944,0.0095555999978387
44.0,44.0,56.0,554.8888482999973,554.8888482999973,0.0094465000001946,557.1379038999985,4.0,5.487,0.0133167000021785,557.1379038999985,6.0,2.158,0.0133167000021785
44.0,44.0,56.0,560.473082399998,560.473082399998,0.01036455000030395,562.8708022999981,4.0,4.6365,0.013787400001092399,562.8708022999981,6.0,1.8855,0.013787400001092399
45.0,45.0,55.0,566.0573164999987,566.0573164999987,0.0112826000004133,568.6037006999977,4.0,3.786,0.0142581000000063,568.6037006999977,7.0,1.613,0.0142581000000063
46.0,46.0,15.0,572.440477199998,572.440477199998,0.0135813999986567,574.4160441999993,4.0,6.483,0.0115597000003617,574.4160441999993,6.0,3.856,0.0115597000003617
47.0,47.0,193.0,580.9386930999972,580.9386930999972,0.0026900999982899,582.1805879999993,2.0,9.677,0.0137176999960502,582.1805879999993,6.0,2.215,0.0137176999960502
48.0,48.0,40.0,591.9175568999999,591.9175568999999,0.0144178999944415,593.5639684999987,4.0,4.199,0.0107224999992467,593.5639684999987,5.0,2.713,0.0107224999992467
49.0,49.0,58.0,597.8140050999973,597.8140050999973,0.0012324999952397,598.9644098999997,3.0,6.168,0.0115381999967212,598.9644098999997,6.0,3.031,0.0115381999967212
50.0,50.0,122.0,605.1818651999965,605.1818651999965,0.0018757999969238,606.9943284999972,3.0,3.701,0.0110286999988602,606.9943284999972,6.0,1.633,0.0110286999988602
51.0,51.0,217.0,610.7417950999989,610.7417950999989,0.0095608000010543,613.4755057999973,6.0,9.018,0.010607300002448,613.4755057999973,3.0,4.69,0.010607300002448
52.0,52.0,63.0,622.5401722999995,622.5401722999995,0.0165820000001986,624.6134461999973,5.0,12.886,0.0108642000013787,624.6134461999973,6.0,5.309,0.0108642000013787
53.0,53.0,210.0,637.5538179999967,637.5538179999967,0.009352699995361,639.136242499997,1.0,5.065,0.0108595000019704,639.136242499997,7.0,11.229,0.0108595000019704
54.0,54.0,215.0,650.4123794999978,650.4123794999978,0.0058441999935894,651.5850751999969,5.0,8.602,0.0108982999990985,651.5850751999969,3.0,3.146,0.0108982999990985
55.0,55.0,64.0,660.2445004999972,660.2445004999972,0.0101894999970681,661.4171051999983,4.0,1.837,0.0113227999972878,661.4171051999983,4.0,4.516,0.0113227999972878
56.0,56.0,112.0,665.9848302999999,665.9848302999999,0.0132162000008975,670.0056648999998,4.0,2.753,0.0135828999991645,670.0056648999998,2.0,8.134,0.0135828999991645
57.0,57.0,76.0,678.2036818999986,678.2036818999986,0.0080098999969777,679.2704575999996,4.0,5.715,0.0090015000023413,679.2704575999996,6.0,1.355,0.0090015000023413
58.0,58.0,234.0,685.0363507999973,685.0363507999973,0.0112535999978717,686.4404250999978,3.0,4.133,0.0107984000023861,686.4404250999978,6.0,6.741,0.0107984000023861
59.0,59.0,42.0,693.2424352999988,693.2424352999988,0.0092916999965382,694.5144684999977,6.0,14.189,0.0138737999986915,694.5144684999977,6.0,4.299,0.0138737999986915
60.0,60.0,84.0,708.7559020999979,708.7559020999979,0.0016144000001077,710.4652601999987,2.0,8.628,0.0140346000007411,710.4652601999987,8.0,3.227,0.0140346000007411
61.0,61.0,132.0,719.1288279999972,719.1288279999972,0.0025171999986923,720.8337999999967,5.0,10.239,0.0111500000020896,720.8337999999967,4.0,3.934,0.0111500000020896
62.0,62.0,186.0,731.1147681999973,731.1147681999973,0.003217699999368,732.4906878999973,3.0,3.368,0.0111351999948965,732.4906878999973,7.0,8.723,0.0111351999948965
63.0,63.0,175.0,741.2718460999968,741.2718460999968,0.0088538000018161,742.4806248999994,4.0,5.229,0.0064392999993287,742.4806248999994,8.0,2.219,0.0064392999993287
64.0,64.0,96.0,747.7619152999978,747.7619152999978,0.0105459000005794,749.1135465999978,1.0,2.646,0.0086609999998472,749.1135465999978,7.0,5.274,0.0086609999998472
65.0,65.0,10.0,754.4320926,754.4320926,0.0090425999987928,755.4359549999972,8.0,4.501,0.0115740000037476,755.4359549999972,3.0,1.322,0.0115740000037476
66.0,66.0,74.0,759.9824171999971,759.9824171999971,0.0111835999960021,761.3584625999974,7.0,1.282,0.0123305999986769,761.3584625999974,2.0,4.246,0.0123305999986769
67.0,67.0,12.0,765.670310999998,765.670310999998,0.0035633000006782,767.2956115999987,6.0,6.351,0.0102925000028335,767.2956115999987,4.0,2.163,0.0102925000028335
68.0,68.0,179.0,773.6873486999975,773.6873486999975,0.0107907000019622,774.7889536999974,5.0,1.668,0.0133976999968581,774.7889536999974,3.0,4.159,0.0133976999968581
69.0,69.0,191.0,778.9830203999991,778.9830203999991,0.0004464000012376,780.1354220999965,4.0,4.682,0.0096959999973478,780.1354220999965,2.0,1.527,0.0096959999973478
70.0,70.0,170.0,784.8742491999983,784.8742491999983,0.0121655999973881,786.7039324999969,4.0,9.902,0.0124078999979246,786.7039324999969,4.0,3.429,0.0124078999979246
71.0,71.0,30.0,796.6596580999976,796.6596580999976,0.0138781999958155,797.8922439999988,3.0,1.385,0.0142862000029708,797.8922439999988,7.0,4.799,0.0142862000029708
72.0,72.0,109.0,802.731452,802.731452,0.0113081999988935,804.0778588999965,3.0,6.551,0.0107319999988249,804.0778588999965,5.0,1.745,0.0107319999988249
73.0,73.0,16.0,810.6609557999982,810.6609557999982,0.0018101999994541,811.8700421999965,7.0,2.866,0.0114202999975532,811.8700421999965,5.0,6.377,0.0114202999975532
74.0,74.0,221.0,818.2922884,818.2922884,0.0072417999981553,819.5199859999993,5.0,17.194,0.0137998999962292,819.5199859999993,4.0,11.172,0.0137998999962292
75.0,75.0,34.0,836.7694568999977,836.7694568999977,0.0054196999990381,838.4258972999996,5.0,1.647,0.0097860999994736,838.4258972999996,6.0,5.145,0.0097860999994736
76.0,76.0,3.0,843.6216537,843.6216537,0.0042568999997456,844.7491274999993,3.0,3.55,0.0127151000015146,844.7491274999993,6.0,1.557,0.0127151000015146
77.0,77.0,236.0,848.3491469999972,848.3491469999972,0.0118036999992909,849.2199376999997,3.0,3.147,0.0084382999957597,849.2199376999997,5.0,1.287,0.0084382999957597
78.0,78.0,26.0,852.4155270999981,852.4155270999981,0.0132204000001365,854.1391989999975,7.0,3.9,0.0109501000006275,854.1391989999975,5.0,2.038,0.0109501000006275
79.0,79.0,97.0,858.0648984,858.0648984,0.0154990999981237,859.3567111999982,4.0,3.834,0.012392999997246,859.3567111999982,4.0,1.357,0.012392999997246
80.0,80.0,184.0,863.2367185999974,863.2367185999974,0.0126557999974465,864.3148169999986,4.0,4.988,0.0143611999992572,864.3148169999986,3.0,3.066,0.0143611999992572
81.0,81.0,80.0,869.3489528999999,869.3489528999999,0.0031742000028316,872.7235273999977,7.0,2.489,0.0125082000013208,872.7235273999977,6.0,4.868,0.0125082000013208
82.0,82.0,165.0,877.6389387999989,877.6389387999989,0.0011447999968368,878.8588276999981,2.0,4.648,0.0093053999989933,878.8588276999981,7.0,1.2,0.0093053999989933
83.0,83.0,67.0,883.5440671999968,883.5440671999968,0.0145921000039379,884.7061373999968,2.0,1.262,0.0085509999989881,884.7061373999968,4.0,4.254,0.0085509999989881
84.0,84.0,50.0,889.0011357999974,889.0011357999974,0.0085750999969604,890.3185410999977,3.0,2.884,0.0117788000025029,890.3185410999977,6.0,1.222,0.0117788000025029
85.0,85.0,153.0,893.2463777999983,893.2463777999983,0.0138288000016473,895.7822403999999,5.0,5.018,0.0121499999986554,895.7822403999999,2.0,2.826,0.0121499999986554
86.0,86.0,178.0,900.8477743999974,900.8477743999974,0.0160648999990371,901.837751799998,5.0,1.552,0.0140793999962625,901.837751799998,4.0,4.462,0.0140793999962625
87.0,87.0,203.0,906.3529282999988,906.3529282999988,0.0133749999986321,908.0138411999978,8.0,8.777,0.0105980999978783,908.0138411999978,1.0,2.454,0.0105980999978783
88.0,88.0,125.0,916.8301417999974,916.8301417999974,0.0150862999980745,922.0607330999992,6.0,9.048,0.0123941999991075,922.0607330999992,6.0,2.344,0.0123941999991075
89.0,89.0,4.0,931.1508474999972,931.1508474999972,0.0006495999987237,932.2033864999976,5.0,1.859,0.0069643999995605,932.2033864999976,3.0,4.289,0.0069643999995605
89.0,89.0,4.0,934.9760356999976,934.9760356999976,0.0051631999976962,936.6271454999987,4.0,2.7424999999999997,0.01009154999883315,936.6271454999987,4.0,2.6905,0.01009154999883315
90.0,90.0,151.0,938.801223899998,938.801223899998,0.0096767999966687,941.0509045,4.0,3.626,0.0132186999981058,941.0509045,6.0,1.092,0.0132186999981058
91.0,91.0,168.0,944.718791799998,944.718791799998,0.0020548999927996,945.9687522999992,3.0,2.131,0.012167099997896,945.9687522999992,7.0,3.524,0.012167099997896
92.0,92.0,11.0,949.5334522999984,949.5334522999984,0.0161886000023514,951.0701008999968,5.0,3.262,0.0130284000006213,951.0701008999968,4.0,1.309,0.0130284000006213
93.0,93.0,83.0,954.4037855999997,954.4037855999997,0.0092785000015283,955.4773277999992,1.0,9.069,0.0128803000006882,955.4773277999992,9.0,4.508,0.0128803000006882
94.0,94.0,142.0,964.5864097999984,964.5864097999984,0.002166300000681,964.7120155999984,5.0,4.829,0.0027865999945788,964.7120155999984,5.0,5.707,0.0027865999945788
95.0,95.0,119.0,970.463729199997,970.463729199997,0.010051299999759,975.469226899997,3.0,5.506,0.0164407999982358,975.469226899997,6.0,3.687,0.0164407999982358
96.0,96.0,47.0,981.0229830999996,981.0229830999996,0.0047583000014128,982.206767599997,5.0,6.382,0.0110363999992841,982.206767599997,2.0,2.705,0.0110363999992841
97.0,97.0,189.0,988.6269388999972,988.6269388999972,0.0039545999934489,989.740851399998,3.0,1.512,0.0080133999981626,989.740851399998,7.0,3.672,0.0080133999981626
98.0,98.0,91.0,993.4676781999988,993.4676781999988,0.0146815999978571,994.4522743999988,7.0,8.82,0.0128815999960352,994.4522743999988,4.0,1.576,0.0128815999960352
99.0,99.0,39.0,1003.3249044999976,1003.3249044999976,0.0119474999992235,1004.8373545999966,5.0,8.05,0.0105674000005819,1004.8373545999966,4.0,4.463,0.0105674000005819
100.0,100.0,78.0,1012.9469731999998,1012.9469731999998,0.0103290000006381,1014.8539367999985,4.0,5.754,0.0141244999977061,1014.8539367999985,6.0,2.415,0.0141244999977061
101.0,101.0,14.0,1020.6559246999968,1020.6559246999968,0.0037408999960462,1022.3507746999968,7.0,1.767,0.011696400000801,1022.3507746999968,3.0,4.11,0.011696400000801
102.0,102.0,18.0,1026.5072438999996,1026.5072438999996,0.0046248999969975,1027.6396720999985,3.0,3.182,0.0156460999969567,1027.6396720999985,7.0,1.66,0.0156460999969567
103.0,103.0,127.0,1030.8837193,1030.8837193,0.0080424999978276,1032.7309878999986,2.0,5.127,0.0095978999997896,1032.7309878999986,9.0,2.567,0.0095978999997896
104.0,104.0,120.0,1037.9161427,1037.9161427,0.0097867000004043,1039.3351072999976,1.0,2.449,0.0112041999964276,1039.3351072999976,7.0,10.899,0.0112041999964276
105.0,105.0,231.0,1050.296198699998,1050.296198699998,0.0087593000025663,1051.7867603999985,1.0,2.568,0.0130195000019739,1051.7867603999985,7.0,5.55,0.0130195000019739
106.0,106.0,90.0,1057.393116799998,1057.393116799998,0.0139086999988649,1058.5305534,2.0,4.634,0.0125244999981077,1058.5305534,6.0,1.409,0.0125244999981077
107.0,107.0,52.0,1063.2112811999978,1063.2112811999978,0.0148856999985582,1064.5001056999972,7.0,1.482,0.0114839999987452,1064.5001056999972,3.0,4.489,0.0114839999987452
108.0,108.0,206.0,1069.0523979999998,1069.0523979999998,0.0052560999974957,1072.3004535,4.0,6.538,0.0143102999973052,1072.3004535,4.0,1.976,0.0143102999973052
109.0,109.0,118.0,1078.8885147999972,1078.8885147999972,0.0107160999978077,1080.0165763999976,7.0,4.332,0.0106840999978885,1080.0165763999976,4.0,7.983,0.0106840999978885
110.0,110.0,220.0,1088.0593280999965,1088.0593280999965,0.0086372999976447,1089.011595699998,3.0,4.215,0.0095427999985986,1089.011595699998,7.0,1.939,0.0095427999985986
111.0,111.0,116.0,1093.2645991999998,1093.2645991999998,0.0066135999986727,1094.2057474999965,9.0,9.137,0.0129998000011255,1094.2057474999965,7.0,2.712,0.0129998000011255
112.0,112.0,87.0,1103.3947501999974,1103.3947501999974,0.0140203999944787,1104.3117495999977,6.0,4.267,0.0111818999976094,1104.3117495999977,4.0,2.606,0.0111818999976094
113.0,113.0,1.0,1108.6553625999986,1108.6553625999986,0.0026743000016722,1109.7059973999967,5.0,7.542,0.0109784000014769,1109.7059973999967,5.0,4.648,0.0109784000014769
114.0,114.0,226.0,1117.2837667999993,1117.2837667999993,0.0021654999945894,1121.0265913999974,4.0,2.636,0.0143621999959577,1121.0265913999974,6.0,4.652,0.0143621999959577
115.0,115.0,27.0,1125.726932499998,1125.726932499998,0.0069752000017615,1125.840817999997,6.0,5.576,0.0032337000011466,1125.840817999997,6.0,3.09,0.0032337000011466
116.0,116.0,105.0,1131.4617936999966,1131.4617936999966,0.0068905999942217,1132.755826499997,3.0,4.682,0.0098271999995631,1132.755826499997,4.0,2.728,0.0098271999995631
117.0,117.0,147.0,1137.4823969999998,1137.4823969999998,0.0049149000042234,1138.4549119999974,4.0,7.568,0.010824799999682,1138.4549119999974,7.0,2.295,0.010824799999682
118.0,118.0,169.0,1146.087916299999,1146.087916299999,0.0036240000008547,1147.0619725999968,5.0,3.91,0.0114364999972167,1147.0619725999968,3.0,2.163,0.0114364999972167
119.0,119.0,235.0,1151.0147846,1151.0147846,0.0045594000002893,1152.2189053999973,5.0,3.111,0.0108265999988361,1152.2189053999973,6.0,1.387,0.0108265999988361
120.0,120.0,160.0,1155.376556299998,1155.376556299998,0.0116259999995236,1156.4744887999989,4.0,5.013,0.0121373999973002,1156.4744887999989,8.0,2.074,0.0121373999973002
121.0,121.0,156.0,1161.5046599999987,1161.5046599999987,0.0039284999984374,1162.5144324999965,4.0,3.356,0.0129658000005292,1162.5144324999965,6.0,1.87,0.0129658000005292
122.0,122.0,100.0,1165.9212727999984,1165.9212727999984,0.0147935999993933,1167.2854394999997,7.0,3.399,0.0107365000003483,1167.2854394999997,7.0,1.662,0.0107365000003483
123.0,123.0,72.0,1170.7388819999978,1170.7388819999978,0.0116280000002007,1171.8079330999972,3.0,3.082,0.0139988000009907,1171.8079330999972,6.0,5.035,0.0139988000009907
124.0,124.0,17.0,1176.8905375999966,1176.8905375999966,0.0003224999964004,1178.1760071999995,5.0,2.955,0.00829800000065,1178.1760071999995,3.0,1.815,0.00829800000065
125.0,125.0,225.0,1181.1842816999997,1181.1842816999997,0.0103717999991204,1182.0682411999987,6.0,4.966,0.0106839000000036,1182.0682411999987,6.0,2.086,0.0106839000000036
126.0,126.0,198.0,1187.0649018999975,1187.0649018999975,0.0090012000000569,1188.1404371999995,4.0,4.317,0.0122948000025644,1188.1404371999995,6.0,2.179,0.0122948000025644
127.0,127.0,228.0,1192.4985482999982,1192.4985482999982,0.0110436999966623,1195.4272256999975,6.0,5.302,0.0125267000003077,1195.4272256999975,2.0,1.446,0.0125267000003077
128.0,128.0,150.0,1200.771730999997,1200.771730999997,0.0071490999944217,1202.0221590999972,4.0,7.79,0.010535900000832,1202.0221590999972,6.0,3.339,0.010535900000832
129.0,129.0,92.0,1209.868603999999,1209.868603999999,0.0037745999979961,1212.2208015999968,3.0,2.312,0.0110687999986112,1212.2208015999968,7.0,4.134,0.0110687999986112
130.0,130.0,6.0,1216.4150013,1216.4150013,0.0081728000004659,1217.1735769999975,6.0,8.735,0.0114708999972208,1217.1735769999975,3.0,4.275,0.0114708999972208
131.0,131.0,194.0,1225.9529977999991,1225.9529977999991,0.0026412999977765,1227.8803120999985,4.0,2.449,0.0124799999975948,1227.8803120999985,3.0,4.558,0.0124799999975948
132.0,132.0,54.0,1232.4820752999983,1232.4820752999983,0.0089459999981045,1233.3272031999986,3.0,2.66,0.0141743000021961,1233.3272031999986,5.0,1.316,0.0141743000021961
133.0,133.0,214.0,1236.0238680999971,1236.0238680999971,0.0092299000025377,1236.9438921,7.0,9.433,0.009786400001758,1236.9438921,2.0,6.662,0.009786400001758
134.0,134.0,79.0,1246.4401291999966,1246.4401291999966,0.0061603999965882,1247.626023599998,4.0,7.638,0.0141488999979628,1247.626023599998,4.0,2.399,0.0141488999979628
134.0,134.0,79.0,1252.0177913499974,1252.0177913499974,0.005457099996419801,1255.064389549998,5.0,5.962,0.0137629999990167,1255.064389549998,5.0,2.2975000000000003,0.0137629999990167
135.0,135.0,224.0,1257.5954534999985,1257.5954534999985,0.0047537999962514,1262.502755499998,7.0,4.286,0.0133771000000706,1262.502755499998,6.0,2.196,0.0133771000000706
136.0,136.0,95.0,1266.8373593999968,1266.8373593999968,0.0164427999989129,1267.8139454999982,8.0,1.796,0.009530099996482,1267.8139454999982,3.0,4.856,0.009530099996482
137.0,137.0,48.0,1272.714343599997,1272.714343599997,0.0086550999949395,1274.0163850999998,6.0,3.601,0.0124711999960709,1274.0163850999998,6.0,1.607,0.0124711999960709
138.0,138.0,7.0,1277.682149999997,1277.682149999997,0.0101820999989286,1279.1487708999994,2.0,5.416,0.0130740999993577,1279.1487708999994,8.0,2.433,0.0130740999993577
139.0,139.0,207.0,1284.6028074999997,1284.6028074999997,0.0057040999963646,1285.9578077999977,2.0,1.726,0.0104972000008274,1285.9578077999977,7.0,7.532,0.0104972000008274
140.0,140.0,82.0,1293.5390015999983,1293.5390015999983,0.0015822000023035,1294.5161571999995,3.0,4.298,0.0092042999967816,1294.5161571999995,8.0,1.711,0.0092042999967816
141.0,141.0,81.0,1298.872993099998,1298.872993099998,0.0104026999979396,1300.4542058999978,2.0,3.882,0.0094021999975666,1300.4542058999978,9.0,5.862,0.0094021999975666
142.0,142.0,124.0,1306.3761669999983,1306.3761669999983,0.0113360999930591,1307.1730406999995,5.0,3.366,0.0114094999989902,1307.1730406999995,3.0,1.543,0.0114094999989902
143.0,143.0,232.0,1310.5702856999997,1310.5702856999997,0.0006990999972913,1311.6029165,8.0,4.164,0.0084715000011783,1311.6029165,3.0,2.321,0.0084715000011783
144.0,144.0,22.0,1315.8058594999966,1315.8058594999966,0.0019707999963429,1317.0266176999976,7.0,5.443,0.0135293999956047,1317.0266176999976,7.0,2.447,0.0135293999956047
145.0,145.0,28.0,1322.5093721999983,1322.5093721999983,0.0064453999984834,1323.713593999997,5.0,4.239,0.0121075000024575,1323.713593999997,3.0,1.877,0.0121075000024575
146.0,146.0,102.0,1327.9950923999968,1327.9950923999968,0.0032733000007283,1336.9019608999988,7.0,5.984,0.0127842999972926,1336.9019608999988,7.0,4.127,0.0127842999972926
147.0,147.0,41.0,1342.9441818999985,1342.9441818999985,0.0061399999976856,1343.8301907999994,2.0,4.345,0.008704800002306,1343.8301907999994,7.0,2.34,0.008704800002306
148.0,148.0,0.0,1348.2135721999985,1348.2135721999985,0.0025948000002244,1349.0251525999993,7.0,6.648,0.0094497999998566,1349.0251525999993,6.0,4.527,0.0094497999998566
149.0,149.0,213.0,1355.7205883999995,1355.7205883999995,0.0013887000022805,1355.830957099999,2.0,4.611,0.003403699996852,1355.830957099999,7.0,3.179,0.003403699996852
150.0,150.0,131.0,1360.4841005999988,1360.4841005999988,0.0051423999975668,1361.7757472999983,3.0,4.215,0.0087878999947861,1361.7757472999983,7.0,1.811,0.0087878999947861
151.0,151.0,43.0,1366.0339289999974,1366.0339289999974,0.0090515000010782,1366.9973939999982,3.0,2.917,0.0122764999978244,1366.9973939999982,5.0,1.159,0.0122764999978244
152.0,152.0,199.0,1369.9828166999978,1369.9828166999978,0.0110529999983555,1371.1905720999966,7.0,2.857,0.0142053000017767,1371.1905720999966,7.0,1.303,0.0142053000017767
153.0,153.0,19.0,1374.0716882999986,1374.0716882999986,0.0106744999975489,1375.096125699998,6.0,3.05,0.0120736000026226,1375.096125699998,7.0,1.196,0.0120736000026226
154.0,154.0,66.0,1378.2037071999985,1378.2037071999985,0.0104838000006566,1379.3234835999974,7.0,3.865,0.0097609000004013,1379.3234835999974,3.0,2.539,0.0097609000004013
155.0,155.0,164.0,1383.3070430999978,1383.3070430999978,0.0093610999974771,1384.3017535,8.0,4.537,0.0104189999983645,1384.3017535,7.0,1.318,0.0104189999983645
156.0,156.0,134.0,1388.8770925999995,1388.8770925999995,0.008376900001167,1390.0307661999975,2.0,4.665,0.0098107999983767,1390.0307661999975,6.0,2.269,0.0098107999983767
157.0,157.0,229.0,1394.7310588999972,1394.7310588999972,0.0059704999985115,1395.9669669999969,4.0,1.347,0.0098470999982964,1395.9669669999969,6.0,3.505,0.0098470999982964
158.0,158.0,35.0,1399.5183870999972,1399.5183870999972,0.0030591000031563,1403.106871099997,5.0,6.453,0.0126299999974435,1403.106871099997,5.0,3.16,0.0126299999974435
159.0,159.0,145.0,1409.607062799998,1409.607062799998,0.0022083999974711,1410.8267334999982,6.0,2.566,0.0110239999958139,1410.8267334999982,4.0,5.014,0.0110239999958139
160.0,160.0,69.0,1415.9015617999976,1415.9015617999976,0.009351599997899,1416.9686841999974,3.0,3.434,0.0127843999980541,1416.9686841999974,7.0,1.59,0.0127843999980541
161.0,161.0,115.0,1420.4435728999997,1420.4435728999997,0.0034688999985519,1421.4129735999995,4.0,3.706,0.0125969999971857,1421.4129735999995,6.0,2.214,0.0125969999971857
162.0,162.0,144.0,1425.163642399999,1425.163642399999,0.00346229999559,1426.0019434999997,4.0,5.082,0.0111780000006547,1426.0019434999997,5.0,1.319,0.0111780000006547
163.0,163.0,204.0,1431.1361860999968,1431.1361860999968,0.0098241999985475,1433.021348599999,2.0,1.523,0.013958100000309,1433.021348599999,5.0,4.002,0.013958100000309
164.0,164.0,60.0,1437.0633143999985,1437.0633143999985,0.0102374000016425,1437.9267459999974,3.0,5.651,0.0114972000010311,1437.9267459999974,7.0,1.308,0.0114972000010311
165.0,165.0,57.0,1443.6158843999983,1443.6158843999983,0.0068796999985352,1445.1104543999973,5.0,1.477,0.0126324000011663,1445.1104543999973,6.0,7.44,0.0126324000011663
166.0,166.0,75.0,1452.598940799999,1452.598940799999,0.0022934000044187,1465.2051962999976,4.0,6.502,0.0134359999974549,1465.2051962999976,5.0,1.891,0.0134359999974549
167.0,167.0,31.0,1471.7629030999997,1471.7629030999997,0.003669899997476,1472.677657799999,5.0,5.015,0.0106118999974569,1472.677657799999,3.0,2.938,0.0106118999974569
168.0,168.0,106.0,1477.7478759999976,1477.7478759999976,0.0038273999962257,1478.590394499999,5.0,4.218,0.0125076999975135,1478.590394499999,5.0,2.592,0.0125076999975135
169.0,169.0,163.0,1482.8489566999997,1482.8489566999997,0.00467899999785,1484.9478710999974,4.0,4.681,0.0087021000035747,1484.9478710999974,5.0,1.686,0.0087021000035747
170.0,170.0,130.0,1489.653529299998,1489.653529299998,0.002940700000181,1490.839248799999,6.0,3.781,0.0113710999976319,1490.839248799999,4.0,2.189,0.0113710999976319
171.0,171.0,71.0,1494.6800517999982,1494.6800517999982,0.0079589999986637,1495.6631538999973,1.0,5.032,0.0103052999984356,1495.6631538999973,6.0,2.459,0.0103052999984356
172.0,172.0,200.0,1500.728963599999,1500.728963599999,0.0149570999965362,1501.9505436,6.0,1.159,0.0128347999998368,1501.9505436,4.0,4.04,0.0128347999998368
173.0,173.0,2.0,1506.040342999997,1506.040342999997,0.013347000003705,1506.822722599998,7.0,3.876,0.0049586999994062,1506.822722599998,6.0,1.353,0.0049586999994062
174.0,174.0,201.0,1510.7393789999987,1510.7393789999987,0.0093783000011171,1511.5637395999984,4.0,1.483,0.0126293999965128,1511.5637395999984,6.0,3.399,0.0126293999965128
175.0,175.0,135.0,1515.0032049999973,1515.0032049999973,0.0133500000010826,1517.6509788999974,3.0,2.45,0.0112513000021863,1517.6509788999974,8.0,5.546,0.0112513000021863
176.0,176.0,162.0,1523.255028399999,1523.255028399999,0.0145425999980943,1524.1397891999986,4.0,6.361,0.0135016000022005,1524.1397891999986,4.0,3.377,0.0135016000022005
177.0,177.0,190.0,1530.5381316999992,1530.5381316999992,0.0084336000036273,1531.5434681999975,5.0,3.766,0.0113877000003412,1531.5434681999975,5.0,1.692,0.0113877000003412
178.0,178.0,137.0,1535.355381999998,1535.355381999998,0.0024491999974998,1536.437187399999,2.0,3.453,0.0131722000005538,1536.437187399999,7.0,1.882,0.0131722000005538
179.0,179.0,101.0,1539.9252202999996,1539.9252202999996,0.0010156999996979,1540.7794977999984,6.0,4.332,0.0118148000001383,1540.7794977999984,6.0,2.985,0.0118148000001383
179.0,179.0,101.0,1569.5717873999984,1569.5717873999984,0.0073076999960903,1573.1665003999988,6.0,4.1825,0.011569349999263,1573.1665003999988,4.0,2.5895,0.011569349999263
180.0,180.0,37.0,1599.218354499997,1599.218354499997,0.0135996999924827,1605.5535029999992,6.0,4.033,0.0113238999983877,1605.5535029999992,3.0,2.194,0.0113238999983877
181.0,181.0,68.0,1609.645226499997,1609.645226499997,0.0071529999950143,1610.4096185999988,7.0,3.583,0.0107530999994196,1610.4096185999988,4.0,1.94,0.0107530999994196
182.0,182.0,219.0,1614.0422422999982,1614.0422422999982,0.0118389999988721,1615.108668599998,5.0,1.618,0.0137064999980793,1615.108668599998,6.0,3.747,0.0137064999980793
183.0,183.0,141.0,1618.911526,1618.911526,0.0117739999986952,1619.8011209999968,7.0,2.582,0.0112860999979602,1619.8011209999968,6.0,1.136,0.0112860999979602
184.0,184.0,233.0,1622.4074525999968,1622.4074525999968,0.0164771000017935,1623.4011692999993,3.0,3.948,0.0108881000014662,1623.4011692999993,6.0,1.887,0.0108881000014662
185.0,185.0,205.0,1627.4022196999977,1627.4022196999977,0.0071170999981404,1628.4345070999989,4.0,1.369,0.0146182999997108,1628.4345070999989,7.0,4.178,0.0146182999997108
186.0,186.0,167.0,1632.653105399997,1632.653105399997,0.0085723000011057,1633.994677999999,2.0,3.385,0.0133879000022716,1633.994677999999,7.0,1.513,0.0133879000022716
187.0,187.0,202.0,1637.4220013999984,1637.4220013999984,0.0078221000003395,1639.3322195,2.0,4.152,0.0143785000000207,1639.3322195,6.0,2.779,0.0143785000000207
188.0,188.0,53.0,1643.526603299997,1643.526603299997,0.0060565999992832,1644.820573099998,1.0,1.704,0.0109224000007088,1644.820573099998,6.0,4.69,0.0109224000007088
189.0,189.0,86.0,1649.5680702999998,1649.5680702999998,0.0110219999951368,1650.5875955999982,5.0,2.713,0.0088996000013139,1650.5875955999982,5.0,1.076,0.0088996000013139
190.0,190.0,21.0,1653.3475444999967,1653.3475444999967,0.0046464999977615,1654.7795319999968,2.0,2.879,0.0074730000014824,1654.7795319999968,6.0,6.623,0.0074730000014824
191.0,191.0,89.0,1661.4406754999982,1661.4406754999982,0.0155096999951638,1662.5881702999975,7.0,4.818,0.0128042000033019,1662.5881702999975,4.0,2.964,0.0128042000033019
192.0,192.0,126.0,1667.4465881999968,1667.4465881999968,0.0113231000032101,1668.7915989999965,2.0,1.95,0.0147938000009162,1668.7915989999965,7.0,7.335,0.0147938000009162
193.0,193.0,216.0,1676.1809283999974,1676.1809283999974,0.0138432999956421,1677.266124499998,3.0,4.857,0.0126703999994788,1677.266124499998,7.0,2.578,0.0126703999994788
194.0,194.0,44.0,1682.1654879999987,1682.1654879999987,0.000819799992314,1683.165476899998,4.0,1.414,0.010169199998927,1683.165476899998,4.0,3.61,0.010169199998927
195.0,195.0,129.0,1686.8266532999987,1686.8266532999987,0.0057361999970453,1687.7768204999993,5.0,7.131,0.0098978000023635,1687.7768204999993,6.0,3.622,0.0098978000023635
196.0,196.0,185.0,1694.9410486999986,1694.9410486999986,0.0107752999974763,1696.1213312,4.0,2.901,0.0130121000001963,1696.1213312,6.0,4.914,0.0130121000001963
197.0,197.0,139.0,1701.0827178,1701.0827178,0.0049662000019452,1701.8224334999975,4.0,4.941,0.0134648000021115,1701.8224334999975,3.0,1.879,0.0134648000021115
198.0,198.0,38.0,1706.8547521999972,1706.8547521999972,0.0067324999981792,1707.7021023999987,3.0,1.243,0.0070583000015176,1707.7021023999987,6.0,3.187,0.0070583000015176
199.0,199.0,227.0,1710.9429759999985,1710.9429759999985,0.0145050999963132,1713.3110585999966,5.0,4.504,0.0154287000004842,1713.3110585999966,5.0,1.596,0.0154287000004842
200.0,200.0,218.0,1717.8473075999973,1717.8473075999973,0.0130638999944494,1718.7692611999992,5.0,1.983,0.0111988999997265,1718.7692611999992,4.0,4.158,0.0111988999997265
201.0,201.0,182.0,1722.957466099997,1722.957466099997,0.0048615000014251,1723.8076853999992,6.0,6.918,0.011735399999452,1723.8076853999992,6.0,1.774,0.011735399999452
202.0,202.0,192.0,1730.7513138999966,1730.7513138999966,0.0134654000030423,1731.857577699997,5.0,2.422,0.0001198000027216,1731.857577699997,6.0,10.024,0.0001198000027216
203.0,203.0,161.0,1741.9275979999984,1741.9275979999984,0.0092847999985679,1743.6398464999984,2.0,1.359,0.01380010000139,1743.6398464999984,4.0,4.405,0.01380010000139
204.0,204.0,49.0,1748.0879881,1748.0879881,0.0081186999923374,1748.956255099998,4.0,3.983,0.0096462000037718,1748.956255099998,5.0,2.38,0.0096462000037718
205.0,205.0,8.0,1753.021834299998,1753.021834299998,0.0023110999973141,1753.994610399997,2.0,1.383,0.0119468000048073,1753.994610399997,7.0,3.327,0.0119468000048073
206.0,206.0,181.0,1757.373767099998,1757.373767099998,0.0020746999980474,1758.5539280999983,2.0,4.772,0.0152096999991044,1758.5539280999983,4.0,1.935,0.0152096999991044
207.0,207.0,25.0,1763.3743517999974,1763.3743517999974,0.003610200001276,1764.1324552999977,7.0,1.415,0.0115704999989247,1764.1324552999977,7.0,3.43,0.0115704999989247
208.0,208.0,111.0,1767.6239444999992,1767.6239444999992,0.0067171999980928,1768.3626874999973,5.0,4.503,0.014283799999248,1768.3626874999973,5.0,1.013,0.014283799999248
209.0,209.0,45.0,1772.9138671999972,1772.9138671999972,0.0013013000025239,1773.7883883999966,6.0,1.458,0.0032903999999689,1773.7883883999966,7.0,5.242,0.0032903999999689
210.0,210.0,140.0,1779.074117199998,1779.074117199998,0.0097032999947259,1780.2129626999997,6.0,2.753,0.0156036999978823,1780.2129626999997,3.0,1.254,0.0156036999978823
211.0,211.0,104.0,1783.0021080999977,1783.0021080999977,0.0135964000000967,1783.691719399998,4.0,6.251,0.0120787999985623,1783.691719399998,7.0,2.026,0.0120787999985623
212.0,212.0,65.0,1789.9831255999998,1789.9831255999998,0.0058668999954534,1790.7726888999969,5.0,1.118,0.0132335999987844,1790.7726888999969,3.0,3.797,0.0132335999987844
213.0,213.0,154.0,1794.6104929999965,1794.6104929999965,0.013184799998271,1795.3049401999997,7.0,9.119,0.0129302999994251,1795.3049401999997,2.0,5.399,0.0129302999994251
214.0,214.0,36.0,1804.476687399998,1804.476687399998,0.0003414000020711,1805.8070296999977,4.0,4.005,0.0141604999953415,1805.8070296999977,6.0,6.704,0.0141604999953415
215.0,215.0,108.0,1812.6032935999972,1812.6032935999972,0.0101370999982464,1813.2049398999989,5.0,5.348,0.009554800002661,1813.2049398999989,6.0,1.721,0.009554800002661
216.0,216.0,13.0,1818.5821831999965,1818.5821831999965,0.0005190999982005,1819.5485726999975,6.0,2.967,0.0125956000010774,1819.5485726999975,6.0,4.983,0.0125956000010774
217.0,217.0,62.0,1824.5754319999976,1824.5754319999976,0.0091228999954182,1826.4099794999968,3.0,4.07,0.0132577999975183,1826.4099794999968,6.0,2.058,0.0132577999975183
218.0,218.0,238.0,1830.4997133,1830.4997133,0.0037281999975675,1831.6662485999989,5.0,5.27,0.0136488999996799,1831.6662485999989,6.0,1.716,0.0136488999996799
219.0,219.0,117.0,1836.9979078,1836.9979078,0.0088100999964808,1838.079732299997,5.0,4.734,0.0118861000009928,1838.079732299997,4.0,1.624,0.0118861000009928
220.0,220.0,187.0,1842.8457647999967,1842.8457647999967,0.0131657000019913,1843.8113674999984,6.0,3.311,0.0125797000000602,1843.8113674999984,3.0,1.731,0.0125797000000602
221.0,221.0,94.0,1847.160296099999,1847.160296099999,0.0067221999997855,1847.9265067999984,2.0,5.316,0.0110969999986991,1847.9265067999984,8.0,2.613,0.0110969999986991
222.0,222.0,33.0,1853.2908289999975,1853.2908289999975,0.0049917999967874,1854.1328273,1.0,2.617,0.0124576999987766,1854.1328273,7.0,5.395,0.0124576999987766
223.0,223.0,148.0,1859.565478499997,1859.565478499997,0.0163217000044824,1860.7343282999973,3.0,3.748,0.0088848000013967,1860.7343282999973,8.0,2.094,0.0088848000013967
224.0,224.0,239.0,1864.530745299999,1864.530745299999,0.0024548000001232,1865.3278982999984,2.0,1.938,0.0160205000029236,1865.3278982999984,4.0,4.32,0.0160205000029236
224.0,224.0,239.0,1880.182783549999,1880.182783549999,0.0063966999987314505,1882.3179613499979,3.0,1.8265,0.01351520000025625,1882.3179613499979,5.0,3.7295,0.01351520000025625
225.0,225.0,196.0,1895.8348217999992,1895.8348217999992,0.0103385999973397,1899.3080243999973,5.0,1.715,0.0110098999975889,1899.3080243999973,6.0,3.139,0.0110098999975889
226.0,226.0,113.0,1902.5240909999995,1902.5240909999995,0.0078110999966156,1904.2571682999987,7.0,4.501,0.012472099999286,1904.2571682999987,3.0,2.624,0.012472099999286
227.0,227.0,230.0,1908.8260402999983,1908.8260402999983,0.008505799996783,1909.5727443999967,7.0,1.281,0.0103907999982766,1909.5727443999967,2.0,4.639,0.0103907999982766
228.0,228.0,85.0,1914.2526253,1914.2526253,0.0108925000022281,1915.2246548999972,6.0,3.951,0.0125536000014108,1915.2246548999972,5.0,1.078,0.0125536000014108
229.0,229.0,133.0,1919.2252002999996,1919.2252002999996,0.0123328999980003,1919.350510199998,2.0,5.439,0.0165888000010454,1919.350510199998,6.0,2.652,0.0165888000010454
230.0,230.0,143.0,1924.8269972999988,1924.8269972999988,0.0125798999979451,1924.9650693999972,5.0,8.245,0.0036455999979807,1924.9650693999972,5.0,6.057,0.0036455999979807
231.0,231.0,152.0,1933.256666199999,1933.256666199999,0.0027509999963513,1934.167881999998,3.0,3.284,0.0117633999980171,1934.167881999998,7.0,1.759,0.0117633999980171
232.0,232.0,171.0,1937.5026326999975,1937.5026326999975,0.0087463999989267,1938.5496817999992,2.0,1.583,0.0128058999980567,1938.5496817999992,6.0,5.662,0.0128058999980567
233.0,233.0,136.0,1944.2646954999984,1944.2646954999984,0.016256599999906,1945.3882711999977,3.0,5.535,0.0139644999981101,1945.3882711999977,7.0,3.693,0.0139644999981101
234.0,234.0,46.0,1950.9695454999965,1950.9695454999965,0.0139421999992919,1951.0716063,3.0,7.062,0.0053607999980158,1951.0716063,6.0,5.108,0.0053607999980158
235.0,235.0,172.0,1958.1907594999973,1958.1907594999973,0.0127795000007608,1958.2874890999992,5.0,10.233,0.0069904000010865,1958.2874890999992,5.0,7.563,0.0069904000010865
236.0,236.0,183.0,1968.5612717999973,1968.5612717999973,0.0134401999966939,1969.6524377999997,4.0,2.315,0.0118516999973508,1969.6524377999997,7.0,4.809,0.0118516999973508
237.0,237.0,88.0,1974.505126,1974.505126,0.0041162999987136,1975.329746199997,3.0,7.685,0.0132467000003089,1975.329746199997,5.0,2.176,0.0132467000003089
238.0,238.0,197.0,1983.0598197,1983.0598197,0.0028669999992416,1983.187909999997,4.0,7.094,0.0035306999998283,1983.187909999997,5.0,5.189,0.0035306999998283
239.0,239.0,51.0,1990.3218153999987,1990.3218153999987,0.0114333999990776,1991.4953537999968,2.0,6.906,0.0086757000026409,1991.4953537999968,6.0,3.963,0.0086757000026409
0.0,0.0,134.0,164.502605900052,164.502605900052,0.0078650300274603,170.4446895000292,5.0,9.08,0.0078701900201849,170.4446895000292,1.0,4.51,0.0078701900201849
1.0,1.0,105.0,179.53982230002293,179.53982230002293,0.0086876699933782,189.54240930004744,5.0,4.185,0.0146049800096079,189.54240930004744,1.0,5.162,0.0146049800096079
2.0,2.0,167.0,194.7610900000436,194.7610900000436,0.0095291599282063,196.75421420001655,5.0,3.366,0.0108095799805596,196.75421420001655,2.0,5.309,0.0108095799805596
3.0,3.0,9.0,202.13192680000796,202.13192680000796,0.0003112599370069,204.0105728000053,5.0,7.134,0.0108818800072185,204.0105728000053,1.0,7.895,0.0108818800072185
4.0,4.0,17.0,211.96207040001173,211.96207040001173,0.0003561699413694,213.8790370000061,5.0,3.511,0.0130137799424119,213.8790370000061,1.0,1.459,0.0130137799424119
5.0,5.0,137.0,217.4440499000484,217.4440499000484,0.0122690600110217,220.56993860000512,7.0,5.557,0.0111408800003118,220.56993860000512,4.0,3.051,0.0111408800003118
6.0,6.0,121.0,226.18582569999853,226.18582569999853,0.0011818599305115,227.3039296000497,7.0,3.435,0.0132519799517467,227.3039296000497,3.0,1.828,0.0132519799517467
7.0,7.0,6.0,230.7931561000296,230.7931561000296,0.0080676599754951,232.9955952000455,3.0,4.36,0.0157420799951069,232.9955952000455,3.0,5.094,0.0157420799951069
8.0,8.0,188.0,238.13772610004528,238.13772610004528,0.0039119698922149,240.21567200002028,6.0,3.864,0.0117567799752578,240.21567200002028,2.0,4.59,0.0117567799752578
9.0,9.0,224.0,244.85638820001623,244.85638820001623,0.0139711599331349,245.9475102000288,3.0,3.933,0.0110751799657009,245.9475102000288,5.0,4.706,0.0110751799657009
10.0,10.0,126.0,250.7134730000398,250.7134730000398,0.0077300599659793,251.9156493000337,4.0,4.786,0.0134297799668274,251.9156493000337,1.0,2.293,0.0134297799668274
11.0,11.0,124.0,256.73892790003447,256.73892790003447,0.0055302699329331,257.853780800011,7.0,3.064,0.0133803799981251,257.853780800011,2.0,3.791,0.0133803799981251
12.0,12.0,52.0,261.6993248000508,261.6993248000508,0.008583560003899,262.6265586000518,1.0,4.799,0.0095973799470812,262.6265586000518,4.0,3.946,0.0095973799470812
13.0,13.0,170.0,267.4759760000161,267.4759760000161,0.0065209600143134,268.5536708,8.0,3.088,0.0127515799831599,268.5536708,2.0,4.216,0.0127515799831599
14.0,14.0,178.0,272.81912410003133,272.81912410003133,0.0163969598943367,274.4201764000464,5.0,2.867,0.0128809799789451,274.4201764000464,1.0,1.229,0.0128809799789451
15.0,15.0,99.0,277.3499011000385,277.3499011000385,0.0025817599962465,278.6113725000177,5.0,2.999,0.0138427799683995,278.6113725000177,1.0,1.777,0.0138427799683995
16.0,16.0,231.0,281.6487355999998,281.6487355999998,0.0005655699642375,282.3093039999949,5.0,2.558,0.0100308800465427,282.3093039999949,1.0,1.291,0.0100308800465427
17.0,17.0,146.0,284.9080129000358,284.9080129000358,0.0058237698976881,286.1776829000446,4.0,4.572,0.0134378799702972,286.1776829000446,1.0,2.926,0.0134378799702972
18.0,18.0,225.0,290.7937126000179,290.7937126000179,0.016614559921436,292.2389858000097,5.0,3.217,0.0125841799890622,292.2389858000097,1.0,1.674,0.0125841799890622
19.0,19.0,210.0,295.50533740001265,295.50533740001265,0.0041402600472792,296.46594300004654,7.0,2.368,0.0132820799481123,296.46594300004654,2.0,3.178,0.0132820799481123
20.0,20.0,5.0,299.6962894000462,299.6962894000462,0.0135616600164212,301.031606100034,4.0,2.044,0.0116717799683101,301.031606100034,2.0,2.881,0.0116717799683101
21.0,21.0,221.0,303.9710917000193,303.9710917000193,0.0099502599332481,305.405037700024,6.0,3.725,0.0132746799499727,305.405037700024,2.0,4.368,0.0132746799499727
22.0,22.0,152.0,309.8320892000338,309.8320892000338,0.0050760600133799,310.72140910004964,3.0,1.96,0.0086567800026386,310.72140910004964,2.0,2.656,0.0086567800026386
23.0,23.0,95.0,313.43778600002406,313.43778600002406,0.007407359953504,314.2314292000374,3.0,4.584,0.0089985799859277,314.2314292000374,3.0,2.214,0.0089985799859277
24.0,24.0,18.0,318.88466179999523,318.88466179999523,0.0023287599324248,320.00427660002606,4.0,6.548,0.0149062799755483,320.00427660002606,2.0,1.365,0.0149062799755483
25.0,25.0,215.0,326.60351680003805,326.60351680003805,0.0101240599178709,328.5112829999998,3.0,5.639,0.0085097799892537,328.5112829999998,2.0,3.124,0.0085097799892537
26.0,26.0,161.0,334.20155600004364,334.20155600004364,0.0132610599976032,335.5669467000407,6.0,4.091,0.0163740799762308,335.5669467000407,4.0,1.937,0.0163740799762308
27.0,27.0,239.0,339.72692820004886,339.72692820004886,0.0163235499639995,340.948151700024,9.0,3.966,0.0140001799445599,340.948151700024,2.0,3.277,0.0140001799445599
28.0,28.0,10.0,344.9618200000259,344.9618200000259,0.0122920600115321,345.819602500007,3.0,2.981,0.0099067799164913,345.819602500007,3.0,3.646,0.0099067799164913
29.0,29.0,111.0,349.5232034000219,349.5232034000219,0.0106729599065147,350.3189477000269,4.0,3.705,0.0137529799831099,350.3189477000269,2.0,2.072,0.0137529799831099
30.0,30.0,216.0,354.0804605000303,354.0804605000303,0.0027678600163199,355.00149690004764,7.0,4.021,0.0084887799457646,355.00149690004764,5.0,4.979,0.0084887799457646
31.0,31.0,3.0,360.03548570000567,360.03548570000567,0.0131340599618852,360.7921107000439,9.0,4.867,0.0068764799507334,360.7921107000439,2.0,5.571,0.0068764799507334
32.0,32.0,228.0,366.4218695000163,366.4218695000163,0.009192359924782,367.6740681999945,5.0,2.469,0.0135597799671813,367.6740681999945,1.0,4.429,0.0135597799671813
33.0,33.0,26.0,372.1500717000454,372.1500717000454,0.0013151700259186,373.0109018000076,1.0,3.176,0.0123808799544349,373.0109018000076,6.0,3.947,0.0123808799544349
34.0,34.0,7.0,377.0109092000057,377.0109092000057,0.0121232599485665,377.6501212000149,5.0,2.641,0.0091197799774818,377.6501212000149,1.0,1.187,0.0091197799774818
35.0,35.0,33.0,380.3582907000091,380.3582907000091,0.0085142499883659,381.14252570003737,5.0,2.674,0.0020295899594202,381.14252570003737,1.0,3.327,0.0020295899594202
36.0,36.0,38.0,384.5156658000196,384.5156658000196,0.0014666700153611,385.649116500048,7.0,2.052,0.0131327799754217,385.649116500048,4.0,2.932,0.0131327799754217
37.0,37.0,4.0,388.6241929000244,388.6241929000244,0.0047675699461251,390.3121234000428,5.0,2.18,0.0120003799092955,390.3121234000428,1.0,2.974,0.0120003799092955
38.0,38.0,211.0,393.3441988000413,393.3441988000413,0.0101286598946899,394.0640167000238,9.0,3.146,0.0111579799558967,394.0640167000238,3.0,3.959,0.0111579799558967
39.0,39.0,230.0,398.0687262000283,398.0687262000283,0.0055466699413955,400.1424368000007,3.0,4.434,0.0136261799489147,400.1424368000007,6.0,2.378,0.0136261799489147
40.0,40.0,100.0,404.6210489000077,404.6210489000077,0.0115561599377542,405.82200320000993,8.0,2.108,0.0102124800323508,405.82200320000993,3.0,2.948,0.0102124800323508
41.0,41.0,31.0,408.8292690000381,408.8292690000381,0.0091703600483015,410.2271078000194,9.0,3.489,0.0121192799415439,410.2271078000194,5.0,1.49,0.0121192799415439
42.0,42.0,213.0,413.7613649000414,413.7613649000414,0.0124305600184015,414.7270038000424,9.0,2.865,0.0125620799954049,414.7270038000424,5.0,1.323,0.0125620799954049
43.0,43.0,103.0,417.6367213000194,417.6367213000194,0.01457316003507,418.7248250000412,5.0,2.842,0.0104507799842394,418.7248250000412,2.0,1.784,0.0104507799842394
44.0,44.0,142.0,421.6233498000074,421.6233498000074,0.0112088599125854,422.4360225000419,1.0,2.73,0.0085608800291083,422.4360225000419,8.0,4.37,0.0085608800291083
44.0,44.0,142.0,428.1721027500171,428.1721027500171,0.0097204499470535,429.8923517000221,4.0,2.4475,0.0116100800223648,429.8923517000221,7.0,3.7664999999999997,0.0116100800223648
45.0,45.0,229.0,434.72085570002673,434.72085570002673,0.0082320399815216,437.3486809000024,7.0,2.165,0.0146592800156213,437.3486809000024,7.0,3.163,0.0146592800156213
46.0,46.0,196.0,440.5653698000242,440.5653698000242,0.0144106600200757,444.2751342999982,7.0,3.487,0.0124899799702689,444.2751342999982,7.0,4.025,0.0124899799702689
47.0,47.0,88.0,448.3576616000501,448.3576616000501,0.0070366599829867,451.11458900000434,7.0,2.831,0.0109397799824364,451.11458900000434,8.0,3.839,0.0109397799824364
48.0,48.0,182.0,455.0037378999986,455.0037378999986,0.0143754599848762,455.9776179000037,5.0,2.414,0.0097982800216414,455.9776179000037,3.0,3.324,0.0097982800216414
49.0,49.0,12.0,459.36045870004455,459.36045870004455,0.0141002599266357,460.3433453000034,7.0,3.967,0.0133935799822211,460.3433453000034,5.0,4.653,0.0133935799822211
50.0,50.0,114.0,465.0413887000177,465.0413887000177,0.0032538699451833,465.873419200012,6.0,2.212,0.010520180047024,465.873419200012,3.0,2.948,0.010520180047024
51.0,51.0,89.0,468.8756618000334,468.8756618000334,0.008473559981212,470.29378770000767,3.0,2.514,0.01000358001329,470.29378770000767,2.0,3.162,0.01000358001329
52.0,52.0,104.0,473.5106238000444,473.5106238000444,0.0008105699671432,474.5471100000432,5.0,2.107,0.0142868800321593,474.5471100000432,1.0,3.654,0.0142868800321593
53.0,53.0,179.0,478.2804825000349,478.2804825000349,0.0065318499691784,479.3198560000165,2.0,2.54,0.0089694799971766,479.3198560000165,5.0,3.069,0.0089694799971766
54.0,54.0,86.0,482.4357585000107,482.4357585000107,0.0039185699424706,483.82672290003393,8.0,2.022,0.0138698800001293,483.82672290003393,8.0,2.722,0.0138698800001293
55.0,55.0,235.0,486.6031125000445,486.6031125000445,0.0149442599504254,487.08975980000105,5.0,2.147,0.0089925799984484,487.08975980000105,1.0,4.395,0.0089925799984484
56.0,56.0,24.0,491.54889970005024,491.54889970005024,0.0036379600060172,492.5045998000424,2.0,2.808,0.0139788799569942,492.5045998000424,5.0,3.531,0.0139788799569942
57.0,57.0,145.0,496.0781442000298,496.0781442000298,0.0058119699242524,496.8230700000422,7.0,2.505,0.0136852799914777,496.8230700000422,5.0,3.316,0.0136852799914777
58.0,58.0,117.0,500.1881325000432,500.1881325000432,0.0164228599751368,501.1269813000108,1.0,2.015,0.0114127799752168,501.1269813000108,4.0,2.605,0.0114127799752168
59.0,59.0,233.0,503.7910506000044,503.7910506000044,0.0152754599694162,504.6108608000213,4.0,1.978,0.010994279931765,504.6108608000213,1.0,2.749,0.010994279931765
60.0,60.0,16.0,507.41484320000745,507.41484320000745,0.0119820599793456,508.35327150003286,4.0,2.28,0.0096552799805067,508.35327150003286,1.0,2.969,0.0096552799805067
61.0,61.0,2.0,511.3764215999981,511.3764215999981,0.0158822599332779,512.0630614000256,2.0,2.367,0.0125626799417659,512.0630614000256,3.0,3.144,0.0125626799417659
62.0,62.0,222.0,515.272740400047,515.272740400047,0.0002003599656745,515.8633424,4.0,2.03,0.0099528799182735,515.8633424,1.0,2.61,0.0099528799182735
63.0,63.0,127.0,518.528990300023,518.528990300023,0.0158504599821753,519.1565766000422,2.0,2.381,0.010112680029124,519.1565766000422,7.0,2.889,0.010112680029124
64.0,64.0,154.0,522.097243199998,522.097243199998,0.0159354599309153,522.8435563000385,3.0,2.649,0.0094714800361543,522.8435563000385,5.0,3.513,0.0094714800361543
65.0,65.0,116.0,526.4164813000243,526.4164813000243,0.0044808599632233,526.9549032000359,5.0,1.948,0.0104523799964226,526.9549032000359,1.0,3.087,0.0104523799964226
66.0,66.0,223.0,530.0923000000184,530.0923000000184,0.0070224700029939,531.5833767000004,2.0,2.316,0.0125814799685031,531.5833767000004,9.0,3.297,0.0125814799685031
67.0,67.0,158.0,534.935789900017,534.935789900017,0.015119660005439,536.3226689000148,4.0,1.982,0.0113932800013571,536.3226689000148,3.0,2.627,0.0113932800013571
68.0,68.0,205.0,539.0072907000431,539.0072907000431,0.0121855599572882,539.7412878000177,5.0,1.748,0.0106751800049096,539.7412878000177,1.0,2.443,0.0106751800049096
69.0,69.0,29.0,542.2356398000265,542.2356398000265,0.001886670012027,543.041591300047,8.0,2.755,0.0111385799827985,543.041591300047,3.0,3.936,0.0111385799827985
70.0,70.0,219.0,547.0334789000335,547.0334789000335,0.0140551599906757,547.6611677000183,5.0,1.898,0.0105109799769707,547.6611677000183,1.0,2.692,0.0105109799769707
71.0,71.0,115.0,550.4027298000292,550.4027298000292,0.0049063699552789,551.14231200004,9.0,2.216,0.0114964799722656,551.14231200004,3.0,2.879,0.0114964799722656
72.0,72.0,119.0,554.0714723000419,554.0714723000419,0.0035230700159445,554.7982880000491,9.0,4.221,0.0110660800128243,554.7982880000491,6.0,5.474,0.0110660800128243
73.0,73.0,66.0,560.3244176000007,560.3244176000007,0.0154018600005656,561.0163158000214,8.0,2.474,0.0075482800020836,561.0163158000214,3.0,3.456,0.0075482800020836
74.0,74.0,45.0,564.5265153000364,564.5265153000364,0.0132380599388852,565.1504047000199,5.0,3.321,0.010742179933004,565.1504047000199,1.0,4.092,0.010742179933004
75.0,75.0,8.0,569.2897530000191,569.2897530000191,0.0047218700055964,570.400720900041,2.0,2.363,0.0106474799686111,570.400720900041,6.0,3.244,0.0106474799686111
76.0,76.0,143.0,573.700369600032,573.700369600032,0.0007430699770338,574.8932717000134,8.0,2.298,0.0127536799991503,574.8932717000134,4.0,3.08,0.0127536799991503
77.0,77.0,81.0,578.0119474999956,578.0119474999956,0.0077996699255891,579.2222428999958,1.0,1.927,0.0097977799596264,579.2222428999958,4.0,3.199,0.0097977799596264
78.0,78.0,177.0,582.4784148000181,582.4784148000181,0.0110792599152773,583.2571215000353,4.0,2.619,0.0147305800346657,583.2571215000353,3.0,3.38,0.0147305800346657
79.0,79.0,35.0,586.690987000009,586.690987000009,0.0130232599331066,587.8523624000372,3.0,2.954,0.0099848799873143,587.8523624000372,5.0,3.617,0.0099848799873143
80.0,80.0,20.0,591.5090918000205,591.5090918000205,0.0059079700149595,592.2671263000229,5.0,2.296,0.0104998799506574,592.2671263000229,1.0,3.015,0.0104998799506574
81.0,81.0,203.0,595.3352009000373,595.3352009000373,0.0149053599452599,596.6259686000412,2.0,2.426,0.0110986799700185,596.6259686000412,7.0,3.507,0.0110986799700185
82.0,82.0,206.0,600.1854704000289,600.1854704000289,0.0151393599226139,601.1956132000196,7.0,2.746,0.0101351799676194,601.1956132000196,1.0,3.537,0.0101351799676194
83.0,83.0,30.0,604.7711513999966,604.7711513999966,0.0071327699697576,605.5617960999953,4.0,6.514,0.0126008799998089,605.5617960999953,3.0,8.267,0.0126008799998089
84.0,84.0,59.0,613.8846816000296,613.8846816000296,0.0119030599598772,615.0542483000318,5.0,2.333,0.012349680007901,615.0542483000318,1.0,3.128,0.012349680007901
85.0,85.0,69.0,618.2255832999945,618.2255832999945,0.0075148699106648,618.8840672000078,4.0,3.931,0.0096725799376145,618.8840672000078,2.0,2.428,0.0096725799376145
86.0,86.0,185.0,622.8707359000109,622.8707359000109,0.014377860003151,623.4966511999955,6.0,1.829,0.0091975800460204,623.4966511999955,2.0,2.87,0.0091975800460204
87.0,87.0,125.0,626.4037638000445,626.4037638000445,0.0161456700298003,627.015631700051,6.0,4.609,0.01354137994349,627.015631700051,1.0,3.548,0.01354137994349
88.0,88.0,147.0,631.6844179000473,631.6844179000473,0.0075229599606245,633.594837600016,4.0,2.229,0.0114846799988299,633.594837600016,2.0,2.855,0.0114846799988299
89.0,89.0,78.0,636.4942964000511,636.4942964000511,0.0057873699115589,637.0252495000022,4.0,2.064,0.009712379949633,637.0252495000022,1.0,2.801,0.009712379949633
89.0,89.0,78.0,644.5337976000446,644.5337976000446,0.00596589993801895,645.4255298000062,2.0,2.23,0.00939747996744695,645.4255298000062,5.0,3.3365,0.00939747996744695
90.0,90.0,139.0,652.5732988000382,652.5732988000382,0.006144429964479,653.8258101000101,1.0,2.396,0.0090825799852609,653.8258101000101,9.0,3.872,0.0090825799852609
91.0,91.0,84.0,657.7506246000412,657.7506246000412,0.0143184599583037,658.3578084000037,8.0,3.633,0.0105922799557447,658.3578084000037,3.0,4.206,0.0105922799557447
92.0,92.0,77.0,662.6067027000245,662.6067027000245,0.0103221700410358,663.2844180000247,3.0,1.916,0.0105249799671582,663.2844180000247,2.0,2.546,0.0105249799671582
93.0,93.0,0.0,665.870001000003,665.870001000003,0.0143998698913492,667.120339200017,8.0,2.232,0.011267680034507,667.120339200017,8.0,3.244,0.011267680034507
94.0,94.0,80.0,670.4186397000449,670.4186397000449,0.0007534699980169,671.0514990999945,7.0,2.545,0.0125404800055548,671.0514990999945,7.0,3.214,0.0125404800055548
95.0,95.0,108.0,674.3118927000323,674.3118927000323,0.0052931699901819,675.2233950000373,4.0,2.813,0.0099912799196317,675.2233950000373,3.0,3.545,0.0099912799196317
96.0,96.0,91.0,678.8246477000066,678.8246477000066,0.0149046599981375,681.191786600044,8.0,2.585,0.0124248799984343,681.191786600044,2.0,3.338,0.0124248799984343
97.0,97.0,1.0,684.5753065000172,684.5753065000172,0.0059374698903411,685.2443206000025,6.0,4.348,0.0092732799821533,685.2443206000025,2.0,5.696,0.0092732799821533
98.0,98.0,151.0,690.9995874000015,690.9995874000015,0.011710159946233,692.2163271000027,8.0,2.67,0.0130985800060443,692.2163271000027,2.0,3.513,0.0130985800060443
99.0,99.0,144.0,695.7683899000403,695.7683899000403,0.0110882699373178,696.9836664000177,7.0,3.754,0.0131166800274513,696.9836664000177,8.0,2.956,0.0131166800274513
100.0,100.0,237.0,700.7661608000053,700.7661608000053,0.0004798799636773,701.4703634000034,7.0,2.957,0.0105291799409314,701.4703634000034,1.0,3.72,0.0105291799409314
101.0,101.0,93.0,705.234294200025,705.234294200025,0.0068771700025536,708.669727600005,4.0,2.782,0.0117893799906596,708.669727600005,1.0,3.529,0.0117893799906596
102.0,102.0,14.0,712.2472047000192,712.2472047000192,0.0051657700096257,713.0469011000241,1.0,2.378,0.009726780001074,713.0469011000241,9.0,3.306,0.009726780001074
103.0,103.0,101.0,716.4073154000216,716.4073154000216,0.0142301599844358,716.9832218000083,1.0,4.317,0.0094244899810291,716.9832218000083,8.0,5.002,0.0094244899810291
104.0,104.0,190.0,722.0508177000447,722.0508177000447,0.0046287599252536,722.8596698000329,5.0,2.867,0.011597279983107,722.8596698000329,1.0,1.176,0.011597279983107
105.0,105.0,191.0,725.7614976000041,725.7614976000041,0.0126528699765913,726.9420801000088,6.0,2.999,0.0109741799533367,726.9420801000088,2.0,4.329,0.0109741799533367
106.0,106.0,110.0,731.3253461000277,731.3253461000277,0.0010386698995716,732.2124464000226,6.0,2.271,0.0157428800011985,732.2124464000226,1.0,2.912,0.0157428800011985
107.0,107.0,113.0,735.1703984000487,735.1703984000487,0.007548669935204,736.2748916000128,3.0,1.636,0.0138142799842171,736.2748916000128,2.0,2.35,0.0138142799842171
108.0,108.0,37.0,738.6767610000097,738.6767610000097,0.0026015699841082,739.4196522000129,5.0,1.83,0.0086984800291247,739.4196522000129,1.0,3.458,0.0086984800291247
109.0,109.0,46.0,742.9390862000291,742.9390862000291,0.0086469599627889,743.8939603000181,3.0,3.823,0.0132934799767099,743.8939603000181,4.0,3.002,0.0132934799767099
110.0,110.0,97.0,747.7494714000495,747.7494714000495,0.001100480032619,748.9546342000249,6.0,1.978,0.0085322799859568,748.9546342000249,1.0,2.64,0.0085322799859568
111.0,111.0,204.0,751.6292263000505,751.6292263000505,0.0058716799831017,753.021235799999,6.0,1.949,0.0130415799794718,753.021235799999,2.0,2.996,0.0130415799794718
112.0,112.0,62.0,756.0594666000106,756.0594666000106,0.0056753699900582,756.7433525000233,9.0,2.202,0.0105281799915246,756.7433525000233,1.0,3.038,0.0105281799915246
113.0,113.0,165.0,759.8421698000166,759.8421698000166,0.0046968599781394,760.688369200041,3.0,2.077,0.0075189799536019,760.688369200041,6.0,2.827,0.0075189799536019
114.0,114.0,198.0,763.5615344000398,763.5615344000398,0.003643269999884,764.2922420999967,8.0,2.313,0.0098222800297662,764.2922420999967,8.0,2.931,0.0098222800297662
115.0,115.0,187.0,767.2661853000172,767.2661853000172,0.0093225699965842,767.8181369000231,5.0,2.913,0.0081695800181478,767.8181369000231,2.0,3.623,0.0081695800181478
116.0,116.0,207.0,771.4885096000507,771.4885096000507,0.003363569965586,772.2640074000228,2.0,3.124,0.0115347799728624,772.2640074000228,7.0,3.839,0.0115347799728624
117.0,117.0,172.0,776.1534259000327,776.1534259000327,0.0032385700033046,777.1012150000315,6.0,2.282,0.010147179942578,777.1012150000315,2.0,2.941,0.010147179942578
118.0,118.0,122.0,780.0806097000022,780.0806097000022,0.0147572699934244,782.8235843000002,8.0,2.868,0.0127458799979649,782.8235843000002,7.0,3.701,0.0127458799979649
119.0,119.0,197.0,786.5684987000423,786.5684987000423,0.0031110699055716,787.571482600004,2.0,2.466,0.0092575799790211,787.571482600004,6.0,3.504,0.0092575799790211
120.0,120.0,176.0,791.1353726999951,791.1353726999951,0.0077501600026153,792.1690440000384,6.0,2.461,0.0082826800062321,792.1690440000384,1.0,3.197,0.0082826800062321
121.0,121.0,96.0,795.4078693000483,795.4078693000483,0.0011749699478968,796.8242528000264,4.0,2.399,0.0116283799870871,796.8242528000264,2.0,3.152,0.0116283799870871
122.0,122.0,82.0,800.039212600037,800.039212600037,0.001336459943559,801.1037020000513,2.0,1.998,0.0105641799746081,801.1037020000513,6.0,2.707,0.0105641799746081
123.0,123.0,67.0,803.8671775000403,803.8671775000403,0.0141147599206306,805.265921000042,4.0,2.176,0.0093904799432493,805.265921000042,2.0,3.292,0.0093904799432493
124.0,124.0,32.0,808.6033023000346,808.6033023000346,0.0051673699636012,810.3109009000473,3.0,2.849,0.0095579799381084,810.3109009000473,2.0,1.707,0.0095579799381084
125.0,125.0,40.0,813.2049404000281,813.2049404000281,0.0035344699863344,813.7886371000204,5.0,2.344,0.0067842800053767,813.7886371000204,1.0,1.368,0.0067842800053767
126.0,126.0,156.0,816.1764376000501,816.1764376000501,0.00011177000124,817.0635660000262,3.0,2.08,0.0091444800491444,817.0635660000262,5.0,2.927,0.0091444800491444
127.0,127.0,135.0,820.0359664999996,820.0359664999996,0.0077352699590846,821.2863000000361,4.0,3.682,0.0106150800129398,821.2863000000361,2.0,1.705,0.0106150800129398
128.0,128.0,58.0,825.0129629000439,825.0129629000439,0.0011250699753873,825.8822478000075,8.0,2.048,0.0110434800153598,825.8822478000075,4.0,3.095,0.0110434800153598
129.0,129.0,74.0,829.025561800052,829.025561800052,0.0049620699719525,829.8709446000285,4.0,2.339,0.015638279961422,829.8709446000285,1.0,1.221,0.015638279961422
130.0,130.0,65.0,832.245990800031,832.245990800031,0.0041823799838311,832.9891273000394,6.0,2.315,0.0114611799945123,832.9891273000394,2.0,1.173,0.0114611799945123
131.0,131.0,63.0,835.3434026000323,835.3434026000323,0.0066412700107321,836.2196613000124,5.0,3.32,0.0143527799518778,836.2196613000124,6.0,1.629,0.0143527799518778
132.0,132.0,55.0,839.5786960000405,839.5786960000405,0.0061468699714168,840.5776696000248,6.0,2.13,0.0092908799415454,840.5776696000248,4.0,1.104,0.0092908799415454
133.0,133.0,192.0,842.7534088999964,842.7534088999964,0.0160328599158674,843.5218064000364,9.0,3.416,0.0117689800099469,843.5218064000364,4.0,2.111,0.0117689800099469
134.0,134.0,71.0,846.9885034000035,846.9885034000035,0.0151748599600978,847.8656740000006,2.0,3.723,0.0107984799542464,847.8656740000006,8.0,1.584,0.0107984799542464
134.0,134.0,71.0,855.2558874000097,855.2558874000097,0.009842749976087351,856.8080218000105,3.0,3.2855,0.0107735799392685,856.8080218000105,4.0,1.5625,0.0107735799392685
135.0,135.0,218.0,863.5232714000158,863.5232714000158,0.0045106399920769,865.7503696000203,4.0,2.848,0.0107486799242906,865.7503696000203,1.0,1.541,0.0107486799242906
136.0,136.0,36.0,868.6469882000238,868.6469882000238,0.0156742599792778,869.4400505000376,5.0,2.183,0.0092514799907803,869.4400505000376,1.0,1.144,0.0092514799907803
137.0,137.0,232.0,871.6700618000468,871.6700618000468,0.0116141599719412,872.1717723000329,5.0,3.276,0.0061312800389714,872.1717723000329,2.0,1.904,0.0061312800389714
138.0,138.0,226.0,875.4973002000479,875.4973002000479,0.0016134699690155,876.1652409000089,5.0,2.917,0.0120641799876466,876.1652409000089,1.0,1.679,0.0120641799876466
139.0,139.0,25.0,879.1175866000121,879.1175866000121,0.0161875699996016,879.7901599000324,5.0,3.229,0.0101870800135657,879.7901599000324,1.0,1.719,0.0101870800135657
140.0,140.0,209.0,883.0595173000474,883.0595173000474,0.0048054699436761,883.9434235999943,7.0,3.301,0.0083781799767166,883.9434235999943,2.0,1.69,0.0083781799767166
141.0,141.0,166.0,887.3056921000243,887.3056921000243,0.0004744598991237,887.9477672000066,5.0,2.595,0.0082830799510702,887.9477672000066,1.0,1.319,0.0082830799510702
142.0,142.0,19.0,890.5867410000064,890.5867410000064,0.0003000699798576,891.292659800034,2.0,4.185,0.0123692799825221,891.292659800034,3.0,5.098,0.0123692799825221
143.0,143.0,234.0,896.4271107999957,896.4271107999957,0.0119478700216859,897.5513537000515,2.0,3.12,0.0115736799780279,897.5513537000515,7.0,4.066,0.0115736799780279
144.0,144.0,217.0,901.671300899994,901.671300899994,0.0097097600228153,902.529761200014,4.0,2.819,0.0123816800187341,902.529761200014,2.0,1.559,0.0123816800187341
145.0,145.0,149.0,905.3968934000004,905.3968934000004,0.0131823599804192,906.7926970000262,3.0,3.267,0.011702379968483,906.7926970000262,2.0,1.33,0.011702379968483
146.0,146.0,173.0,910.1064387000516,910.1064387000516,0.0053272699587978,910.806277800002,5.0,3.015,0.0106800800422206,910.806277800002,3.0,1.221,0.0106800800422206
147.0,147.0,140.0,913.8633260000496,913.8633260000496,8.526997407898307e-05,914.7539649000393,8.0,4.229,0.0154012800194323,914.7539649000393,7.0,1.678,0.0154012800194323
148.0,148.0,153.0,919.0167974000216,919.0167974000216,0.005792370007839,920.71533060004,6.0,3.382,0.0112168799969367,920.71533060004,7.0,1.112,0.0112168799969367
149.0,149.0,60.0,924.1454689000384,924.1454689000384,0.005592169938609,925.9029462000472,5.0,3.047,0.0116898799897171,925.9029462000472,5.0,1.574,0.0116898799897171
150.0,150.0,220.0,929.0086366000468,929.0086366000468,0.0086139600025489,930.2080460000434,5.0,2.545,0.0138383799931034,930.2080460000434,1.0,1.23,0.0138383799931034
151.0,151.0,98.0,932.7968903,932.7968903,0.015522259986028,933.6998350000358,5.0,3.541,0.0067295799381099,933.6998350000358,2.0,1.672,0.0067295799381099
152.0,152.0,118.0,937.2824928000337,937.2824928000337,0.0001255699899047,938.0947706000296,6.0,3.233,0.0112599799758754,938.0947706000296,4.0,1.661,0.0112599799758754
153.0,153.0,28.0,941.3607355999992,941.3607355999992,0.0145244700252078,942.9732407000264,7.0,3.381,0.00958657998126,942.9732407000264,8.0,1.428,0.00958657998126
154.0,154.0,57.0,946.4253997000052,946.4253997000052,0.0007971599698066,947.3805581000051,8.0,3.883,0.0088226799853146,947.3805581000051,2.0,1.63,0.0088226799853146
155.0,155.0,53.0,951.3222430000314,951.3222430000314,0.0064119599410332,952.20700330002,4.0,3.99,0.0100358799681998,952.20700330002,2.0,1.668,0.0100358799681998
156.0,156.0,168.0,956.2314778,956.2314778,0.0050433700089342,957.8223163000076,4.0,2.843,0.0069770799600519,957.8223163000076,2.0,1.203,0.0069770799600519
157.0,157.0,132.0,960.724624000024,960.724624000024,0.0071087599499151,961.8400274000014,3.0,2.231,0.0099287799675948,961.8400274000014,3.0,1.173,0.0099287799675948
158.0,158.0,162.0,964.0982669000514,964.0982669000514,0.0012390799820423,964.6026838000398,5.0,3.616,0.0096682799630798,964.6026838000398,4.0,2.01,0.0096682799630798
159.0,159.0,68.0,968.2562117000344,968.2562117000344,0.0118488699081353,969.370667900017,5.0,3.368,0.0137858799425885,969.370667900017,2.0,1.861,0.0137858799425885
160.0,160.0,56.0,972.7789442000212,972.7789442000212,0.0076730699511244,974.3453739000252,6.0,2.597,0.0117419799789786,974.3453739000252,1.0,1.439,0.0117419799789786
161.0,161.0,163.0,976.9825280000224,976.9825280000224,0.0011312700225971,979.1464781000396,4.0,7.301,0.0113239799975417,979.1464781000396,4.0,2.171,0.0113239799975417
162.0,162.0,22.0,986.4753940000082,986.4753940000082,0.0157229700125753,988.6226959000342,7.0,1.6,0.0097555799875408,988.6226959000342,6.0,2.988,0.0097555799875408
163.0,163.0,181.0,991.6513403000426,991.6513403000426,0.0107624700176529,992.4810374000226,7.0,2.983,0.0127827799879014,992.4810374000226,7.0,1.146,0.0127827799879014
164.0,164.0,43.0,995.5069034000044,995.5069034000044,0.003551069938112,996.2818438000396,5.0,3.278,0.010270379949361,996.2818438000396,2.0,2.042,0.010270379949361
165.0,165.0,102.0,999.6044825999998,999.6044825999998,0.004453369998373,1000.8520598000032,2.0,2.942,0.0114194800262339,1000.8520598000032,8.0,1.409,0.0114194800262339
166.0,166.0,175.0,1003.8378203000176,1003.8378203000176,0.0009483699686825,1004.5330404000124,5.0,3.187,0.0085679800249636,1004.5330404000124,1.0,2.091,0.0085679800249636
167.0,167.0,138.0,1007.7773848000217,1007.7773848000217,0.0085535598918795,1008.6704354000394,6.0,2.883,0.0110752799082547,1008.6704354000394,4.0,1.392,0.0110752799082547
168.0,168.0,42.0,1011.5944845000048,1011.5944845000048,0.0058268699795007,1012.473194900027,4.0,2.234,0.0113102800096385,1012.473194900027,2.0,1.087,0.0113102800096385
169.0,169.0,13.0,1014.7440858000192,1014.7440858000192,0.0075873699970543,1016.3229713000474,3.0,3.314,0.0097644799388945,1016.3229713000474,6.0,2.126,0.0097644799388945
170.0,170.0,120.0,1019.6806588000036,1019.6806588000036,0.0086973698926158,1020.2843973000416,6.0,2.296,0.0131095799733884,1020.2843973000416,3.0,1.216,0.0131095799733884
171.0,171.0,76.0,1022.6377163000288,1022.6377163000288,0.0108168598962947,1023.6092655000392,1.0,2.897,0.0112565799499861,1023.6092655000392,9.0,4.709,0.0112565799499861
172.0,172.0,131.0,1028.3738202000386,1028.3738202000386,0.0138837599661201,1030.1166468000156,4.0,2.731,0.0103097800165414,1030.1166468000156,6.0,1.12,0.0103097800165414
173.0,173.0,184.0,1032.8975072000176,1032.8975072000176,0.0114860599278472,1033.811382600048,3.0,2.432,0.0105558799696154,1033.811382600048,2.0,1.277,0.0105558799696154
174.0,174.0,107.0,1036.2750520000118,1036.2750520000118,0.002375679963734,1037.1929153000235,6.0,3.066,0.0085096800466999,1037.1929153000235,1.0,1.737,0.0085096800466999
175.0,175.0,193.0,1040.2977105000173,1040.2977105000173,0.01453585998388,1041.2751222000225,7.0,3.281,0.0094582800520583,1041.2751222000225,6.0,1.935,0.0094582800520583
176.0,176.0,202.0,1044.5824917000136,1044.5824917000136,0.0134797699865885,1046.0345299000037,5.0,2.234,0.0129147799452766,1046.0345299000037,3.0,0.878,0.0129147799452766
177.0,177.0,106.0,1048.2986478999956,1048.2986478999956,3.6980025470256805e-05,1052.770243100007,5.0,2.605,0.012023479968775,1052.770243100007,1.0,1.422,0.012023479968775
178.0,178.0,186.0,1055.429915500048,1055.429915500048,0.0088525599567219,1056.6969272000133,3.0,3.386,0.009287979977671,1056.6969272000133,8.0,1.802,0.009287979977671
179.0,179.0,11.0,1060.139850400039,1060.139850400039,0.0010738599812611,1061.875405500003,8.0,2.583,0.0118840800132602,1061.875405500003,7.0,1.21,0.0118840800132602
179.0,179.0,11.0,1071.5392561500194,1071.5392561500194,0.0045088999613653,1073.1792252000014,7.0,2.7695,0.010903579997830051,1073.1792252000014,5.0,1.4845,0.010903579997830051
180.0,180.0,73.0,1082.9386618999995,1082.9386618999995,0.0079439399414695,1084.4830449,7.0,2.956,0.0099230799823999,1084.4830449,3.0,1.759,0.0099230799823999
181.0,181.0,136.0,1087.4834088000352,1087.4834088000352,0.0043213699827902,1088.8026389000006,6.0,3.062,0.0075217800331301,1088.8026389000006,6.0,1.225,0.0075217800331301
182.0,182.0,112.0,1091.9149996000342,1091.9149996000342,4.786992212757468e-05,1092.9386044000275,2.0,2.148,0.0114262800198048,1092.9386044000275,7.0,4.125,0.0114262800198048
183.0,183.0,41.0,1097.095885800023,1097.095885800023,0.0038550799945369,1098.309238900023,6.0,2.879,0.0092441799934022,1098.309238900023,4.0,3.539,0.0092441799934022
184.0,184.0,150.0,1101.896715800045,1101.896715800045,0.0060030699823983,1103.3462153000291,3.0,2.22,0.0097409799927845,1103.3462153000291,7.0,1.132,0.0097409799927845
185.0,185.0,200.0,1105.5957984999986,1105.5957984999986,0.0121681700111366,1106.4363877000287,6.0,2.717,0.0087711800588294,1106.4363877000287,2.0,1.414,0.0087711800588294
186.0,186.0,61.0,1109.194759600039,1109.194759600039,0.0145394600112922,1110.3454454000455,3.0,3.545,0.0071888800594024,1110.3454454000455,3.0,2.247,0.0071888800594024
187.0,187.0,227.0,1113.9238232000498,1113.9238232000498,0.0165497599518857,1115.797559800034,5.0,2.916,0.0122779800440184,1115.797559800034,2.0,1.506,0.0122779800440184
188.0,188.0,92.0,1118.7467135000045,1118.7467135000045,0.0119051699875853,1118.831746300042,5.0,4.276,0.0040366899920627,1118.831746300042,2.0,3.119,0.0040366899920627
189.0,189.0,183.0,1123.1434732000344,1123.1434732000344,0.0148396699223667,1123.9302397000138,5.0,3.132,0.0112642800086177,1123.9302397000138,1.0,1.493,0.0112642800086177
190.0,190.0,54.0,1127.099401400017,1127.099401400017,0.0121454700129106,1129.480844500009,5.0,2.568,0.0124312799889594,1129.480844500009,4.0,1.528,0.0124312799889594
191.0,191.0,85.0,1132.086975700047,1132.086975700047,0.0095345700392499,1132.9627949999997,2.0,3.117,0.0117341800360009,1132.9627949999997,4.0,1.554,0.0117341800360009
192.0,192.0,129.0,1136.1267194999964,1136.1267194999964,0.0036776700289919,1137.9552507000044,5.0,2.984,0.0129103799699805,1137.9552507000044,1.0,3.944,0.0129103799699805
193.0,193.0,94.0,1141.9431236000382,1141.9431236000382,0.0073080700240097,1143.039604300051,2.0,2.399,0.012239679985214,1143.039604300051,3.0,3.077,0.012239679985214
194.0,194.0,195.0,1146.1653255000128,1146.1653255000128,0.0028775699902325,1147.4524438000517,5.0,2.454,0.0117135800537653,1147.4524438000517,2.0,3.225,0.0117135800537653
195.0,195.0,123.0,1150.7134495000355,1150.7134495000355,0.0089230699231848,1152.665637900005,3.0,2.582,0.0114811799721792,1152.665637900005,6.0,3.924,0.0114811799721792
196.0,196.0,141.0,1156.6442155000404,1156.6442155000404,0.012045859999489,1159.6912907000517,7.0,3.167,0.0119534799596294,1159.6912907000517,3.0,1.945,0.0119534799596294
197.0,197.0,157.0,1162.911444000027,1162.911444000027,0.0141517599113285,1164.066650599998,2.0,2.565,0.0108150800224393,1164.066650599998,6.0,3.358,0.0108150800224393
198.0,198.0,21.0,1167.4814585000277,1167.4814585000277,0.0130637600086629,1168.600133100001,4.0,2.137,0.0111894800211302,1168.600133100001,2.0,3.116,0.0111894800211302
199.0,199.0,87.0,1171.7808059999952,1171.7808059999952,0.0025811599334701,1172.707114400051,3.0,2.648,0.0097081799176521,1172.707114400051,3.0,3.337,0.0097081799176521
200.0,200.0,171.0,1176.0921536000096,1176.0921536000096,0.0046165699022822,1177.0571229000343,4.0,1.857,0.0098353800131008,1177.0571229000343,3.0,3.08,0.0098353800131008
201.0,201.0,72.0,1180.1960583000327,1180.1960583000327,0.0095752599881961,1181.2045979000395,6.0,2.549,0.0077320799464359,1181.2045979000395,3.0,3.426,0.0077320799464359
202.0,202.0,194.0,1184.6761050000205,1184.6761050000205,0.0057258699671365,1186.1459799000295,4.0,1.846,0.0090927800047211,1186.1459799000295,5.0,2.62,0.0090927800047211
203.0,203.0,212.0,1188.8277994000237,1188.8277994000237,0.0071517599863,1189.6454255999995,4.0,2.321,0.0150258800131268,1189.6454255999995,3.0,2.945,0.0150258800131268
204.0,204.0,34.0,1192.6322311999977,1192.6322311999977,0.0045215699938125,1193.2337572000106,5.0,2.132,0.0144472799729555,1193.2337572000106,1.0,3.226,0.0144472799729555
205.0,205.0,159.0,1196.5016695000231,1196.5016695000231,0.0096676699467934,1198.0278006000444,4.0,1.981,0.0110493800020776,1198.0278006000444,2.0,2.826,0.0110493800020776
206.0,206.0,164.0,1200.905308000045,1200.905308000045,0.0008714700234122,1202.0252570000011,3.0,1.815,0.0095144799561239,1202.0252570000011,2.0,3.462,0.0095144799561239
207.0,207.0,199.0,1205.5444418000409,1205.5444418000409,0.0139367599040269,1206.1287105000229,5.0,1.925,0.012468280037865,1206.1287105000229,1.0,2.682,0.012468280037865
208.0,208.0,51.0,1208.8629451000015,1208.8629451000015,0.0159823599969968,1209.7308377000154,7.0,1.983,0.0117071800050325,1209.7308377000154,2.0,2.927,0.0117071800050325
209.0,209.0,180.0,1212.7159778000205,1212.7159778000205,0.0121362599311396,1213.867559300037,2.0,1.901,0.0134120800066739,1213.867559300037,7.0,2.875,0.0134120800066739
210.0,210.0,155.0,1216.7965815000352,1216.7965815000352,3.966997610405088e-05,1217.6822945000022,5.0,2.645,0.0111713799997232,1217.6822945000022,1.0,3.392,0.0111713799997232
211.0,211.0,130.0,1221.1360635000165,1221.1360635000165,0.0078263599425554,1222.4031358000357,5.0,4.301,0.0122588800149969,1222.4031358000357,1.0,2.628,0.0122588800149969
212.0,212.0,133.0,1226.740120600036,1226.740120600036,0.0099184699938632,1227.4642167999991,5.0,2.797,0.0133879799977876,1227.4642167999991,1.0,1.532,0.0133879799977876
213.0,213.0,44.0,1230.3034008000395,1230.3034008000395,0.0093938700156286,1230.971630700049,5.0,2.297,0.0096352799446322,1230.971630700049,1.0,1.158,0.0096352799446322
214.0,214.0,238.0,1233.3106406000445,1233.3106406000445,0.0092193699092604,1233.9179602000513,5.0,2.252,0.0143632799736224,1233.9179602000513,1.0,1.163,0.0143632799736224
215.0,215.0,160.0,1236.216966100037,1236.216966100037,0.0036932699731551,1237.142936300021,6.0,1.633,0.015486080024857,1237.142936300021,2.0,2.317,0.015486080024857
216.0,216.0,83.0,1239.5067345999996,1239.5067345999996,0.0008154699462465,1240.0926663000137,4.0,2.98,0.0096011800342239,1240.0926663000137,4.0,3.893,0.0096011800342239
217.0,217.0,48.0,1244.0372942000397,1244.0372942000397,0.0021773700136691,1244.8825869000284,5.0,2.17,0.0145203800057061,1244.8825869000284,1.0,2.86,0.0145203800057061
218.0,218.0,208.0,1247.778667000006,1247.778667000006,0.0099065700196661,1248.5149218000006,3.0,2.049,0.0135191800072789,1248.5149218000006,2.0,2.773,0.0135191800072789
219.0,219.0,70.0,1251.3358964000363,1251.3358964000363,0.0030700699426233,1251.8969505000275,5.0,1.683,0.0140666799852624,1251.8969505000275,1.0,3.076,0.0140666799852624
220.0,220.0,189.0,1255.0240293000245,1255.0240293000245,0.0130086599965579,1257.9644180000178,2.0,2.734,0.0119883799343369,1257.9644180000178,4.0,3.761,0.0119883799343369
221.0,221.0,15.0,1261.7731169000035,1261.7731169000035,0.0067777700023725,1263.0051305000088,6.0,2.357,0.0125944799510762,1263.0051305000088,1.0,3.246,0.0125944799510762
222.0,222.0,75.0,1266.3087842999958,1266.3087842999958,0.0082747599226422,1267.5923026000382,6.0,2.526,0.0130253799725323,1267.5923026000382,2.0,3.284,0.0130253799725323
223.0,223.0,148.0,1270.9182341000414,1270.9182341000414,0.0048848699079826,1271.4327442000504,7.0,2.16,0.0089510799734853,1271.4327442000504,2.0,3.214,0.0089510799734853
224.0,224.0,109.0,1274.6868852000334,1274.6868852000334,0.0055198700283654,1275.5828318000422,7.0,2.303,0.0122148800292052,1275.5828318000422,2.0,3.841,0.0122148800292052
224.0,224.0,109.0,1280.182754850015,1280.182754850015,0.0078855900210328,1281.505857650045,5.0,2.2435,0.0127361800114158,1281.505857650045,2.0,3.3685,0.0127361800114158
225.0,225.0,128.0,1285.6786244999969,1285.6786244999969,0.0102513100137002,1287.428883500048,3.0,2.184,0.0132574799936264,1287.428883500048,2.0,2.896,0.0132574799936264
226.0,226.0,49.0,1290.4150880000088,1290.4150880000088,0.0093470400315709,1291.4480910000275,4.0,2.063,0.0112449799780733,1291.4480910000275,3.0,2.902,0.0112449799780733
227.0,227.0,23.0,1294.403206100047,1294.403206100047,0.0142069599824026,1295.3495546000197,7.0,2.833,0.0112342800130136,1295.3495546000197,3.0,3.573,0.0112342800130136
228.0,228.0,174.0,1298.969247400004,1298.969247400004,0.0037006699712947,1299.849558100046,7.0,2.917,0.0120174800395034,1299.849558100046,2.0,1.775,0.0120174800395034
229.0,229.0,169.0,1302.8075455000508,1302.8075455000508,0.0049016699194908,1303.8061766000465,4.0,2.548,0.0108939799829386,1303.8061766000465,3.0,3.783,0.0108939799829386
230.0,230.0,39.0,1307.6470415000222,1307.6470415000222,0.0071236599469557,1309.0622440000298,8.0,2.8,0.0138378799892961,1309.0622440000298,3.0,3.748,0.0138378799892961
231.0,231.0,214.0,1312.8625777999987,1312.8625777999987,0.0014225699123926,1313.8576175000053,3.0,1.898,0.0114945799577981,1313.8576175000053,4.0,2.53,0.0114945799577981
232.0,232.0,50.0,1316.434897400031,1316.434897400031,0.0023780700284987,1318.602803100017,4.0,2.143,0.0128956800326704,1318.602803100017,4.0,1.145,0.0128956800326704
233.0,233.0,64.0,1320.7876872000052,1320.7876872000052,0.0068879699101671,1321.3900085000205,8.0,2.033,0.0122392799821682,1321.3900085000205,8.0,2.668,0.0122392799821682
234.0,234.0,47.0,1324.1198379000416,1324.1198379000416,0.0060951599152758,1324.6755943000317,4.0,2.335,0.0119175799773074,1324.6755943000317,2.0,1.327,0.0119175799773074
235.0,235.0,90.0,1327.0513793000137,1327.0513793000137,0.0048970699426718,1327.7253348000231,5.0,4.968,0.0071891800616867,1327.7253348000231,2.0,2.327,0.0071891800616867
236.0,236.0,236.0,1332.7508998000412,1332.7508998000412,0.0106641600141301,1334.1963932000217,4.0,2.47,0.0135523799690417,1334.1963932000217,3.0,3.201,0.0135523799690417
237.0,237.0,201.0,1337.4297252999968,1337.4297252999968,0.00224998005433,1338.224048300006,4.0,2.112,0.0127533799968659,1338.224048300006,3.0,0.964,0.0127533799968659
238.0,238.0,79.0,1340.4075234000338,1340.4075234000338,0.0104746498982422,1342.38504860003,4.0,3.087,0.0139484800165519,1342.38504860003,2.0,1.758,0.0139484800165519
239.0,239.0,27.0,1345.5028704000288,1345.5028704000288,0.0075385700329206,1346.3184527000412,5.0,2.233,0.0117692799540236,1346.3184527000412,1.0,1.164,0.0117692799540236
0.0,0.0,100.0,97.27349549997598,97.27349549997598,0.0074512300197966,112.42690610000864,5.0,11.305,0.0072722900076769,112.42690610000864,1.0,6.846,0.0072722900076769
1.0,1.0,102.0,123.76146499998868,123.76146499998868,0.0017434699693694,125.93298390001291,7.0,15.042,0.0142729800427332,125.93298390001291,2.0,4.662,0.0142729800427332
2.0,2.0,54.0,141.029673299985,141.029673299985,6.60600489936769e-05,143.9701132000191,4.0,6.597,0.0136627799947746,143.9701132000191,2.0,3.243,0.0136627799947746
3.0,3.0,13.0,150.625195599976,150.625195599976,0.0019051600247621,151.8586881000083,8.0,6.245,0.0153339799726381,151.8586881000083,2.0,7.899,0.0153339799726381
4.0,4.0,106.0,159.79640679998556,159.79640679998556,0.0069322699564509,161.3068282000022,7.0,11.249,0.015344779996667,161.3068282000022,5.0,3.446,0.015344779996667
5.0,5.0,153.0,172.60705089999828,172.60705089999828,0.0075964599964208,174.08462540002074,4.0,6.741,0.0139603800489567,174.08462540002074,2.0,7.456,0.0139603800489567
6.0,6.0,237.0,181.59886919998095,181.59886919998095,0.0038182600401341,183.4527725999942,6.0,5.368,0.0131447800667956,183.4527725999942,2.0,6.845,0.0131447800667956
7.0,7.0,166.0,190.3561189000029,190.3561189000029,0.0073879599804058,191.40434569999343,5.0,3.8,0.0114373799879103,191.40434569999343,2.0,4.881,0.0114373799879103
8.0,8.0,192.0,196.35589810000965,196.35589810000965,0.0155407499987632,201.0188452000148,6.0,9.649,0.0160429799580015,201.0188452000148,2.0,5.975,0.0160429799580015
9.0,9.0,81.0,210.7296447000117,210.7296447000117,0.0002617600839585,212.1721514000092,3.0,20.636,0.0132257800432853,212.1721514000092,5.0,14.107,0.0132257800432853
10.0,10.0,20.0,232.87354760000017,232.87354760000017,0.0165986499632708,234.99940640002023,3.0,9.112,0.0107896800036542,234.99940640002023,4.0,6.462,0.0107896800036542
11.0,11.0,32.0,244.1615980999777,244.1615980999777,0.0014659699518233,245.58697900001425,4.0,6.586,0.0134287800174206,245.58697900001425,3.0,7.717,0.0134287800174206
12.0,12.0,7.0,253.35342930001207,253.35342930001207,0.0031905699288472,255.3073191000149,6.0,11.422,0.0143038800451904,255.3073191000149,3.0,12.102,0.0143038800451904
13.0,13.0,150.0,267.47441979998257,267.47441979998257,0.0044406600645743,268.65911399998004,2.0,13.09,0.0148306799819692,268.65911399998004,4.0,14.195,0.0148306799819692
14.0,14.0,156.0,282.9305452000117,282.9305452000117,0.0085352499736472,284.1981112000067,6.0,10.428,0.0131710799760185,284.1981112000067,3.0,11.251,0.0131710799760185
15.0,15.0,215.0,295.526340899989,295.526340899989,0.0096464499947614,297.0946585999918,5.0,4.632,0.0106558800325728,297.0946585999918,1.0,2.297,0.0106558800325728
16.0,16.0,235.0,301.77748699998483,301.77748699998483,0.0126863599871285,302.92958340002224,6.0,8.36,0.0133393799769692,302.92958340002224,1.0,6.218,0.0133393799769692
17.0,17.0,138.0,311.3386268999893,311.3386268999893,0.0121227600029669,312.6525596000138,4.0,8.038,0.0138561800122261,312.6525596000138,1.0,4.328,0.0138561800122261
18.0,18.0,43.0,320.75352779997047,320.75352779997047,0.0129789499915204,324.51827649999177,4.0,9.619,0.0110736800706945,324.51827649999177,3.0,10.452,0.0110736800706945
19.0,19.0,68.0,335.0218987999833,335.0218987999833,0.0006098700105212,336.3327884000028,2.0,6.135,0.0113924799370579,336.3327884000028,6.0,6.809,0.0113924799370579
20.0,20.0,109.0,343.1950141999987,343.1950141999987,0.0137963600573129,344.28974069998367,2.0,3.551,0.0125686799874529,344.28974069998367,8.0,4.902,0.0125686799874529
21.0,21.0,99.0,349.237984300009,349.237984300009,0.005272869952023,354.6953342999914,6.0,6.753,0.0138444799813441,354.6953342999914,4.0,7.984,0.0138444799813441
22.0,22.0,67.0,362.73823219997576,362.73823219997576,0.0103926599840633,363.872681799985,5.0,25.658,0.0127383800572715,363.872681799985,3.0,24.662,0.0127383800572715
23.0,23.0,70.0,389.60470979998354,389.60470979998354,0.0027705500251613,391.6097469999804,1.0,7.95,0.0092275800416246,391.6097469999804,7.0,9.086,0.0092275800416246
24.0,24.0,130.0,400.742401800002,400.742401800002,0.0140028599998913,402.3025108000147,8.0,5.483,0.0121424799435772,402.3025108000147,2.0,6.589,0.0121424799435772
25.0,25.0,136.0,408.9381888000062,408.9381888000062,0.0038903699605725,411.7209860999719,8.0,6.571,0.0145884800003841,411.7209860999719,2.0,7.547,0.0145884800003841
26.0,26.0,50.0,419.3243993999786,419.3243993999786,0.0126651600003242,424.8690362999914,5.0,6.339,0.0146402800455689,424.8690362999914,3.0,7.454,0.0146402800455689
27.0,27.0,15.0,432.36908869998297,432.36908869998297,0.0066586699686013,433.6831088999752,6.0,8.137,0.0110111800022423,433.6831088999752,6.0,9.028,0.0110111800022423
28.0,28.0,91.0,442.7678374999669,442.7678374999669,0.0099551600287668,444.8398164999671,5.0,5.434,0.0121195800020359,444.8398164999671,1.0,6.242,0.0121195800020359
29.0,29.0,225.0,451.1238483000197,451.1238483000197,0.00871596991783,452.9732702000183,8.0,13.225,0.0119287799461744,452.9732702000183,8.0,12.116,0.0119287799461744
30.0,30.0,174.0,466.2548888999736,466.2548888999736,0.0028283600113354,472.3502332000062,5.0,11.565,0.01026287995046,472.3502332000062,1.0,10.654,0.01026287995046
31.0,31.0,37.0,483.9630267000175,483.9630267000175,0.0102737600682303,485.4025689999689,4.0,9.319,0.0119871799834072,485.4025689999689,3.0,10.228,0.0119871799834072
32.0,32.0,59.0,495.6860660999664,495.6860660999664,0.0139956600032746,511.687683600001,3.0,7.905,0.0133640800486318,511.687683600001,3.0,6.951,0.0133640800486318
33.0,33.0,97.0,519.6461078000139,519.6461078000139,0.0135771600180305,524.1629691999988,6.0,2.319,0.0145616800291463,524.1629691999988,1.0,5.979,0.0145616800291463
34.0,34.0,213.0,530.1958676999784,530.1958676999784,0.0166466599912382,531.9029496000148,3.0,6.045,0.0126418800209648,531.9029496000148,5.0,4.992,0.0126418800209648
35.0,35.0,128.0,537.99167269998,537.99167269998,0.0005822699167765,539.3889329999802,5.0,5.735,0.011744079994969,539.3889329999802,2.0,6.363,0.011744079994969
36.0,36.0,74.0,545.7943203999894,545.7943203999894,0.0075528700253926,546.2476985999965,4.0,6.375,0.0137578800204209,546.2476985999965,2.0,5.026,0.0137578800204209
37.0,37.0,141.0,552.6908667999669,552.6908667999669,0.0019332600058987,567.3517357999808,8.0,10.438,0.0136683799792081,567.3517357999808,3.0,11.615,0.0136683799792081
38.0,38.0,206.0,579.0238425999996,579.0238425999996,0.0078390599810518,587.5532879999955,4.0,6.213,0.0155518800020217,587.5532879999955,3.0,5.361,0.0155518800020217
39.0,39.0,224.0,593.8047656000126,593.8047656000126,0.0077504700166173,594.8594540000195,9.0,5.479,0.0124377800384536,594.8594540000195,1.0,4.691,0.0124377800384536
40.0,40.0,160.0,600.3938729999936,600.3938729999936,0.0044884600210934,601.3852788999793,4.0,8.533,0.0065345800830982,601.3852788999793,2.0,6.808,0.0065345800830982
41.0,41.0,113.0,609.9739842999843,609.9739842999843,0.0056442600325681,615.0861142000067,5.0,16.418,0.0147939800517633,615.0861142000067,1.0,15.572,0.0147939800517633
42.0,42.0,22.0,631.544588299992,631.544588299992,0.0152053599595092,634.2988621999975,8.0,11.957,0.0143173800315707,634.2988621999975,8.0,12.717,0.0143173800315707
43.0,43.0,201.0,647.0942502999678,647.0942502999678,0.0070800500106997,648.3955598999746,5.0,9.852,0.011311879963614,648.3955598999746,5.0,9.046,0.011311879963614
44.0,44.0,126.0,658.2859375000116,658.2859375000116,0.008756969938986,659.4030565000139,4.0,3.567,0.0128165800124406,659.4030565000139,3.0,4.443,0.0128165800124406
44.0,44.0,126.0,663.0794169500005,663.0794169500005,0.008600704924901899,667.4132167999924,5.0,3.551,0.012949680036399451,667.4132167999924,5.0,4.401999999999999,0.012949680036399451
45.0,45.0,48.0,667.8728963999893,667.8728963999893,0.0084444399108178,675.4233770999708,7.0,3.535,0.0130827800603583,675.4233770999708,7.0,4.361,0.0130827800603583
46.0,46.0,28.0,679.8290407999884,679.8290407999884,0.0083789699710905,681.0292828999809,7.0,8.524,0.0119736799388192,681.0292828999809,2.0,9.378,0.0119736799388192
47.0,47.0,31.0,690.4635076000122,690.4635076000122,0.0076393600320443,691.7453420999809,5.0,7.873,0.0105381800094619,691.7453420999809,4.0,9.129,0.0105381800094619
48.0,48.0,83.0,700.9389722999767,700.9389722999767,0.0040231599705293,716.8221927999984,7.0,4.48,0.0145758800208568,716.8221927999984,3.0,5.323,0.0145758800208568
49.0,49.0,23.0,722.1901968999882,722.1901968999882,0.0032907699933275,724.5943012000062,7.0,9.5,0.0100280800252221,724.5943012000062,7.0,8.827,0.0100280800252221
50.0,50.0,60.0,734.1858170999913,734.1858170999913,0.0055154399597086,735.7270404999726,4.0,5.101,0.0117146800621412,735.7270404999726,4.0,5.847,0.0117146800621412
51.0,51.0,208.0,741.6275098000187,741.6275098000187,0.0160765600157901,742.6185992999817,8.0,5.92,0.0132502800552174,742.6185992999817,1.0,5.195,0.0132502800552174
52.0,52.0,0.0,748.5717435000115,748.5717435000115,0.0078739699092693,750.1543179000146,7.0,15.156,0.010314580053091,750.1543179000146,4.0,14.057,0.010314580053091
53.0,53.0,45.0,765.3537958000088,765.3537958000088,0.0014933699858374,773.9662210000097,6.0,5.587,0.01225978002185,773.9662210000097,1.0,4.461,0.01225978002185
54.0,54.0,189.0,779.5955430999747,779.5955430999747,0.0126571600558236,784.4199413000024,3.0,7.925,0.0162673799786716,784.4199413000024,3.0,7.105,0.0162673799786716
55.0,55.0,233.0,792.3893099999987,792.3893099999987,0.0072196699329651,793.669429600006,9.0,6.973,0.0117826799978502,793.669429600006,2.0,7.92,0.0117826799978502
56.0,56.0,229.0,801.6462116999901,801.6462116999901,0.0082528600469231,803.5858270999743,8.0,3.415,0.0110647800611332,803.5858270999743,3.0,4.295,0.0110647800611332
57.0,57.0,142.0,807.9392387999687,807.9392387999687,0.0140822600224055,809.7593098999932,7.0,17.214,0.0144701800309121,809.7593098999932,4.0,18.121,0.0144701800309121
58.0,58.0,9.0,827.9281636999804,827.9281636999804,0.0002197699504904,834.0089504999924,4.0,12.703,0.0150553800631314,834.0089504999924,2.0,13.441,0.0150553800631314
59.0,59.0,170.0,847.5071808000212,847.5071808000212,0.012155260075815,849.5748906999943,4.0,4.368,0.0105325800250284,849.5748906999943,2.0,3.409,0.0105325800250284
60.0,60.0,154.0,853.9802067999844,853.9802067999844,0.0063014699844643,855.5505890999921,5.0,3.436,0.0137954800156876,855.5505890999921,1.0,4.316,0.0137954800156876
61.0,61.0,94.0,859.9189560000086,859.9189560000086,0.0162723599933087,862.1971270000213,6.0,31.147,0.014720480015967,862.1971270000213,3.0,26.738,0.014720480015967
62.0,62.0,187.0,893.3890389999724,893.3890389999724,0.0133018599590286,904.3854959000018,7.0,4.582,0.0163461799966171,904.3854959000018,1.0,5.418,0.0163461799966171
63.0,63.0,61.0,909.8612411000069,909.8612411000069,0.0098845600150525,911.0743556999952,4.0,4.477,0.0112896800274029,911.0743556999952,3.0,3.518,0.0112896800274029
64.0,64.0,29.0,915.5921508999892,915.5921508999892,0.0122031599748879,923.5197346999776,2.0,19.392,0.0143730799900367,923.5197346999776,7.0,20.202,0.0143730799900367
65.0,65.0,24.0,943.7603653999976,943.7603653999976,0.0110705700353719,944.9186522000236,7.0,4.754,0.0135352800134569,944.9186522000236,7.0,3.884,0.0135352800134569
66.0,66.0,165.0,949.7179500000202,949.7179500000202,0.0062019699835218,950.9998246000032,5.0,3.383,0.0120988800190389,950.9998246000032,1.0,4.202,0.0120988800190389
67.0,67.0,227.0,955.2599425999796,955.2599425999796,0.0067049600183963,956.1675880000112,5.0,11.409,0.0075264799525029,956.1675880000112,1.0,9.273,0.0075264799525029
68.0,68.0,188.0,967.6210969999664,967.6210969999664,0.0015387699822895,968.6503126000172,6.0,25.614,0.0100261799525469,968.6503126000172,2.0,24.242,0.0100261799525469
69.0,69.0,184.0,994.2892724999692,994.2892724999692,0.0090294699184596,995.5846812999808,4.0,6.082,0.0094564800383523,995.5846812999808,6.0,7.073,0.0094564800383523
70.0,70.0,173.0,1002.7088881999952,1002.7088881999952,0.0024233700241893,1008.986918199982,4.0,7.403,0.0144382800790481,1008.986918199982,6.0,6.334,0.0144382800790481
71.0,71.0,77.0,1016.443411300017,1016.443411300017,0.0030418599490076,1017.5159522999892,5.0,6.35,0.0125921799917705,1017.5159522999892,1.0,4.525,0.0125921799917705
72.0,72.0,25.0,1023.9112668000162,1023.9112668000162,0.0032164700096473,1028.848447199969,6.0,37.329,0.0102195800282061,1028.848447199969,3.0,38.828,0.0102195800282061
73.0,73.0,149.0,1067.7208748999983,1067.7208748999983,0.0030182700138539,1069.548843699973,3.0,5.935,0.0097325899987481,1069.548843699973,7.0,6.934,0.0097325899987481
74.0,74.0,11.0,1076.5369838000042,1076.5369838000042,0.016289260063786,1091.6472515999922,6.0,6.669,0.0125618800520896,1091.6472515999922,3.0,5.747,0.0125618800520896
75.0,75.0,199.0,1098.357372700004,1098.357372700004,0.0065970700234174,1102.4396430000195,6.0,4.019,0.0158518799580633,1102.4396430000195,1.0,5.0,0.0158518799580633
76.0,76.0,118.0,1107.4888416000176,1107.4888416000176,0.0128000599797815,1108.5638083000083,7.0,20.12,0.0084974800702184,1108.5638083000083,2.0,21.114,0.0084974800702184
77.0,77.0,4.0,1129.7376984999864,1129.7376984999864,0.0069058600347489,1130.9202266000211,6.0,4.755,0.0148170799948275,1130.9202266000211,1.0,5.737,0.0148170799948275
78.0,78.0,69.0,1136.71086370002,1136.71086370002,0.0014480699901469,1137.8369767999975,6.0,23.931,0.0144006800255738,1137.8369767999975,4.0,25.314,0.0144006800255738
79.0,79.0,1.0,1163.1928182999836,1163.1928182999836,0.0043959700269624,1166.0504972999915,8.0,3.655,0.0158360800123773,1166.0504972999915,4.0,4.587,0.0158360800123773
80.0,80.0,49.0,1170.6925265999744,1170.6925265999744,0.0160534599563106,1172.2891571000218,7.0,11.26,0.0136282799649052,1172.2891571000218,5.0,12.57,0.0136282799649052
81.0,81.0,232.0,1184.917502299999,1184.917502299999,0.0095434600370936,1185.6667242000112,2.0,5.984,0.0116797799710184,1185.6667242000112,3.0,6.864,0.0116797799710184
82.0,82.0,18.0,1192.5905031000148,1192.5905031000148,0.0093137599760666,1216.8711281999713,6.0,7.239,0.0161575800157152,1216.8711281999713,1.0,4.753,0.0161575800157152
83.0,83.0,175.0,1224.1583345999825,1224.1583345999825,0.004747370025143,1242.8399615000235,6.0,7.991,0.015795879997313,1242.8399615000235,1.0,8.964,0.015795879997313
84.0,84.0,40.0,1251.8569243999664,1251.8569243999664,0.0125815600622445,1253.4326638000202,4.0,3.383,0.0114678799873217,1253.4326638000202,2.0,4.257,0.0114678799873217
85.0,85.0,181.0,1257.7444640999893,1257.7444640999893,0.0141358600230887,1259.935124200012,6.0,14.161,0.0125386799918487,1259.935124200012,2.0,15.217,0.0125386799918487
86.0,86.0,226.0,1275.219484900008,1275.219484900008,0.012259549985174,1277.4354270999902,3.0,6.186,0.0136133800260722,1277.4354270999902,6.0,7.047,0.0136133800260722
87.0,87.0,98.0,1284.5272175999708,1284.5272175999708,0.0081683699972927,1286.2220690000104,5.0,3.472,0.0145788799854926,1286.2220690000104,1.0,4.536,0.0145788799854926
88.0,88.0,105.0,1290.81026389997,1290.81026389997,0.0147208600537851,1294.0863517000107,8.0,12.889,0.0145442800130695,1294.0863517000107,7.0,13.721,0.0145442800130695
89.0,89.0,177.0,1307.8575724000111,1307.8575724000111,0.0031237700604833,1309.093404299987,8.0,3.917,0.0126670800382271,1309.093404299987,8.0,4.549,0.0126670800382271
89.0,89.0,177.0,1325.5768155000114,1325.5768155000114,0.00784400003612965,1328.6029965000052,7.0,4.109999999999999,0.01378893002402035,1328.6029965000052,4.0,4.8395,0.01378893002402035
90.0,90.0,95.0,1343.2960586000115,1343.2960586000115,0.012564230011776,1348.1125887000237,7.0,4.303,0.0149107800098136,1348.1125887000237,1.0,5.13,0.0149107800098136
91.0,91.0,64.0,1353.2965952000231,1353.2965952000231,0.0150970599497668,1355.2534779999987,3.0,8.499,0.0100557800615206,1355.2534779999987,4.0,9.493,0.0100557800615206
92.0,92.0,19.0,1364.793170699966,1364.793170699966,0.0044432699796743,1367.5242488000076,8.0,4.268,0.0122954799444414,1367.5242488000076,6.0,5.009,0.0122954799444414
93.0,93.0,228.0,1372.5968023000169,1372.5968023000169,0.006516260036733,1373.662819500023,4.0,5.561,0.0137936800601892,1373.662819500023,3.0,6.393,0.0137936800601892
94.0,94.0,146.0,1380.0984963999945,1380.0984963999945,0.0026496700011193,1382.1300048999838,4.0,3.868,0.0119694800232537,1382.1300048999838,1.0,4.843,0.0119694800232537
95.0,95.0,85.0,1387.0310362000018,1387.0310362000018,0.0109455600613728,1388.0446548999753,7.0,5.164,0.0139689800562337,1388.0446548999753,2.0,8.643,0.0139689800562337
96.0,96.0,53.0,1396.750670199981,1396.750670199981,0.003912059997674,1401.8129434000002,6.0,4.426,0.01558077998925,1401.8129434000002,1.0,5.812,0.01558077998925
97.0,97.0,6.0,1407.6749792000046,1407.6749792000046,0.0012572699342854,1420.5918013000046,6.0,36.708,0.0145748800132423,1420.5918013000046,2.0,37.812,0.0145748800132423
98.0,98.0,14.0,1458.4510759999976,1458.4510759999976,0.0021610700059682,1459.2701314999722,4.0,3.648,0.0090893800370395,1459.2701314999722,2.0,4.351,0.0090893800370395
99.0,99.0,86.0,1463.66018549999,1463.66018549999,0.014362970017828,1464.819066199998,6.0,4.095,0.0127199800335802,1464.819066199998,1.0,4.998,0.0127199800335802
100.0,100.0,58.0,1469.8736819999758,1469.8736819999758,0.0111035600421018,1470.8706295000156,4.0,10.021,0.0107907800702378,1470.8706295000156,5.0,10.928,0.0107907800702378
101.0,101.0,55.0,1481.8536764999735,1481.8536764999735,0.0088530599605292,1482.6046604000148,5.0,105.159,0.0109535800875164,1482.6046604000148,3.0,105.901,0.0109535800875164
102.0,102.0,196.0,1588.5524543999927,1588.5524543999927,0.0016386699862778,1589.5575548000052,5.0,3.138,0.0094622800243087,1589.5575548000052,1.0,3.851,0.0094622800243087
103.0,103.0,65.0,1593.4645647999714,1593.4645647999714,0.0114493599394336,1595.2865355999677,6.0,3.01,0.0133669799542985,1595.2865355999677,2.0,3.777,0.0133669799542985
104.0,104.0,219.0,1599.106345999986,1599.106345999986,0.0099077699123881,1600.390092800022,7.0,3.993,0.0129585800459608,1600.390092800022,3.0,4.871,0.0129585800459608
105.0,105.0,209.0,1605.333389399981,1605.333389399981,0.0130114500061608,1611.5993133999873,6.0,3.526,0.0154595799976959,1611.5993133999873,6.0,4.693,0.0154595799976959
106.0,106.0,44.0,1616.3387843999662,1616.3387843999662,0.0011220700107514,1617.42290960002,7.0,4.665,0.0095399800338782,1617.42290960002,3.0,5.706,0.0095399800338782
107.0,107.0,144.0,1623.1850306999986,1623.1850306999986,0.0138339600525796,1647.2522576000192,7.0,3.755,0.0148505799588747,1647.2522576000192,2.0,4.53,0.0148505799588747
108.0,108.0,75.0,1651.8214292000048,1651.8214292000048,0.0139291699742898,1653.451718700002,7.0,6.458,0.0120313800289295,1653.451718700002,2.0,30.472,0.0120313800289295
